time,seconds_elapsed,z,y,x
1729114987950340400,0.02834033203125,0,0,0
1729114987987895800,0.065895751953125,0.0015964508056640625,0.005874026566743851,-0.011253222823143005
1729114988025830400,0.103830322265625,0.04453277587890625,-0.0066108256578445435,0.01688535511493683
1729114988063764700,0.1417646484375,-0.041039466857910156,-0.010302133858203888,-0.018761560320854187
1729114988101699300,0.17969921875,0.03990364074707031,-0.030601240694522858,0.003223329782485962
1729114988139634000,0.217634033203125,-0.02720355987548828,-0.009314946830272675,-0.0034767836332321167
1729114988177568500,0.255568603515625,0.03241539001464844,-0.010893397033214569,0.0028639137744903564
1729114988215503000,0.293503173828125,-0.00095367431640625,0.01182844489812851,0.0025798380374908447
1729114988253437700,0.331437744140625,0.021831512451171875,-0.002623125910758972,0.004385367035865784
1729114988291372300,0.369372314453125,-0.0038909912109375,-0.008825883269309998,-0.0003703683614730835
1729114988329306600,0.407306640625,0.0046939849853515625,-0.014238119125366211,0.0009173154830932617
1729114988367241200,0.4452412109375,-0.0046062469482421875,0.005328863859176636,0.003800317645072937
1729114988405175800,0.48317578125,-0.004984855651855469,-0.001985877752304077,0.0009461492300033569
1729114988443110400,0.5211103515625,0.0042209625244140625,-0.010496966540813446,-0.0013017356395721436
1729114988481045000,0.559044921875,0.004267692565917969,-0.0006513297557830811,0.007496193051338196
1729114988518979600,0.5969794921875,-0.0027294158935546875,0.013178750872612,-0.003977835178375244
1729114988556914000,0.634913818359375,-0.0048236846923828125,-0.008030742406845093,-0.005796089768409729
1729114988594848500,0.6728486328125,0.004239082336425781,-0.004732340574264526,-0.002919107675552368
1729114988632783000,0.710783203125,-0.00048732757568359375,-0.004429928958415985,0.003769978880882263
1729114988670717700,0.7487177734375,-0.0010633468627929688,0.0028994381427764893,-0.008078575134277344
1729114988708652300,0.78665234375,0.009477615356445312,0.0026520192623138428,0.0039413124322891235
1729114988746587000,0.8245869140625,0.013604164123535156,-0.006634652614593506,-0.00968441367149353
1729114988784521500,0.862521484375,0.0059814453125,-0.008637316524982452,-0.0028874874114990234
1729114988822456000,0.9004560546875,0.005715370178222656,0.0031411871314048767,0.013453364372253418
1729114988860390400,0.938390380859375,-0.0033178329467773438,-0.0018017515540122986,-0.009490594267845154
1729114988898325000,0.976324951171875,0.0035715103149414062,0.003210514783859253,0.006723925471305847
1729114988936259600,1.014259521484375,0.007961273193359375,-0.0038770362734794617,-0.007099226117134094
1729114988974194200,1.052194091796875,-0.0021963119506835938,0.0029890164732933044,0.001967191696166992
1729114989012128800,1.090128662109375,-0.007737159729003906,-0.0014194473624229431,0.004234373569488525
1729114989050063400,1.1280634765625,-0.0009975433349609375,-0.008008591830730438,-0.0057783424854278564
1729114989087998000,1.165998046875,-0.0026502609252929688,-0.002936616539955139,-0.0012529641389846802
1729114989125932500,1.2039326171875,0.0021581649780273438,0.00372130423784256,0.005890190601348877
1729114989163867100,1.2418671875,0.0025529861450195312,0.012533493340015411,0.0013495534658432007
1729114989201801500,1.279801513671875,-0.00701904296875,0.002805836498737335,0.0038323253393173218
1729114989239736000,1.317736083984375,0.002407073974609375,-0.002206549048423767,-0.009169086813926697
1729114989277670700,1.355670654296875,-0.006896018981933594,-0.001927398145198822,0.002090141177177429
1729114989315605200,1.393605224609375,-0.01129913330078125,-0.010617084801197052,0.004725947976112366
1729114989353539800,1.431539794921875,-0.0064334869384765625,-0.005535289645195007,0.01184624433517456
1729114989391474400,1.469474365234375,-0.004233360290527344,0.008167453110218048,0.011209607124328613
1729114989429409000,1.507408935546875,-0.001888275146484375,0.006173811852931976,-0.0003285408020019531
1729114989467343400,1.54534326171875,-0.0015554428100585938,0.008944496512413025,0.011714249849319458
1729114989505278000,1.58327783203125,-0.001888275146484375,-0.0030144304037094116,0.0070235878229141235
1729114989543212500,1.621212646484375,-0.0009317398071289062,-0.00048413127660751343,0.005123212933540344
1729114989581147100,1.659147216796875,0.004822731018066406,-0.005498878657817841,0.002509862184524536
1729114989619081700,1.697081787109375,-0.0019769668579101562,0.006340771913528442,-0.013119146227836609
1729114989657016300,1.735016357421875,0.0030069351196289062,-0.0009593069553375244,0.005898311734199524
1729114989694951000,1.772950927734375,-0.006737709045410156,-0.0010610297322273254,-0.0038176923990249634
1729114989732885500,1.810885498046875,0.00931549072265625,-0.0031708702445030212,0.010383456945419312
1729114989770820000,1.848820068359375,-0.01605987548828125,0.008629046380519867,-0.010770991444587708
1729114989808754400,1.88675439453125,0.011929512023925781,0.001311086118221283,-0.0032875537872314453
1729114989846689000,1.92468896484375,0.009130477905273438,-0.003663301467895508,-0.008399620652198792
1729114989884623600,1.96262353515625,0.004498481750488281,-0.0126618891954422,-0.004144236445426941
1729114989922558200,2.00055810546875,-0.002643585205078125,-0.005363896489143372,-0.0066754817962646484
1729114989960492800,2.038492919921875,0.0024137496948242188,0.0063202157616615295,0.011815086007118225
1729114989998427400,2.076427490234375,0.0021505355834960938,0.0013986900448799133,-0.009978815913200378
1729114990036362000,2.114362060546875,0.006061553955078125,0.005308091640472412,0.005873531103134155
1729114990074296300,2.15229638671875,-0.016576766967773438,-0.01580256223678589,-0.007759392261505127
1729114990112231000,2.19023095703125,0.006194114685058594,0.0055455416440963745,-0.0004663914442062378
1729114990150165500,2.22816552734375,-0.020979881286621094,-0.015486709773540497,-0.009884238243103027
1729114990188100000,2.26610009765625,0.007163047790527344,-0.005855761468410492,-0.0006924569606781006
1729114990226034700,2.30403466796875,0.0017404556274414062,0.010288521647453308,0.017565637826919556
1729114990263969300,2.34196923828125,-0.0007076263427734375,0.007840022444725037,0.0032048076391220093
1729114990301904000,2.37990380859375,-0.010054588317871094,0.007580526173114777,0.0013284087181091309
1729114990339838500,2.41783837890625,-0.007083892822265625,0.00029718875885009766,-0.005763128399848938
1729114990377773000,2.45577294921875,-0.0026750564575195312,0.007215484976768494,0.01243734359741211
1729114990415707400,2.493707275390625,-0.004525184631347656,0.00009994953870773315,0.003697425127029419
1729114990453642000,2.53164208984375,-0.004408836364746094,-0.012945927679538727,0.013302266597747803
1729114990491576600,2.56957666015625,0.007124900817871094,0.003953851759433746,-0.007884129881858826
1729114990529511200,2.60751123046875,0.0024614334106445312,0.0015472620725631714,-0.002763018012046814
1729114990567445800,2.64544580078125,0.01551055908203125,-0.0027174800634384155,0.008964359760284424
1729114990605380400,2.68338037109375,0.0037851333618164062,-0.007153056561946869,-0.012483850121498108
1729114990643315000,2.72131494140625,0.0033731460571289062,0.0018688291311264038,0.0018207728862762451
1729114990681249500,2.75924951171875,-0.0020122528076171875,0.001812078058719635,0.0017227232456207275
1729114990719184000,2.797183837890625,0.00322723388671875,-0.002362675964832306,-0.0031002461910247803
1729114990757118500,2.835118408203125,-0.012824058532714844,0.005089178681373596,0.004006370902061462
1729114990795053000,2.873052978515625,0.0035076141357421875,0.0027112141251564026,0.0014492273330688477
1729114990832987600,2.910987548828125,-0.007924079895019531,0.006720535457134247,0.0052748918533325195
1729114990870922200,2.948922119140625,0.0015964508056640625,-0.007776170969009399,0.006842747330665588
1729114990908856800,2.98685693359375,0.004062652587890625,-0.005523651838302612,-0.003232136368751526
1729114990946791400,3.02479150390625,0.0017414093017578125,-0.0007348582148551941,0.003617316484451294
1729114990984726000,3.06272607421875,0.003939628601074219,-0.003148965537548065,-0.012487918138504028
1729114991022660600,3.10066064453125,0.0011272430419921875,0.0016088709235191345,0.006308466196060181
1729114991060595200,3.13859521484375,0.0077877044677734375,0.003487326204776764,-0.0007901936769485474
1729114991098529500,3.176529541015625,-0.012022018432617188,-0.0016417354345321655,-0.0072473883628845215
1729114991136464100,3.214464111328125,0.008622169494628906,-0.008101426064968109,-0.013632655143737793
1729114991174398700,3.252398681640625,-0.012033462524414062,-0.002931453287601471,0.006949201226234436
1729114991212333300,3.290333251953125,0.0023326873779296875,-0.002841949462890625,0.004787907004356384
1729114991250268000,3.328267822265625,0.011124610900878906,-0.000459037721157074,-0.0016555041074752808
1729114991288202500,3.366202392578125,-0.007917404174804688,-0.0027469173073768616,-0.0017143189907073975
1729114991326137000,3.40413720703125,0.004618644714355469,0.006497442722320557,0.003388836979866028
1729114991364071700,3.44207177734375,0.0036163330078125,-0.0030672699213027954,0.0002536475658416748
1729114991402006000,3.480006103515625,-0.0026750564575195312,-0.0029501616954803467,0.007111296057701111
1729114991439940600,3.517940673828125,0.013063430786132812,-0.005104862153530121,0.008723288774490356
1729114991477875200,3.555875244140625,0.0038652420043945312,-0.0028565749526023865,0.002733662724494934
1729114991515809800,3.593809814453125,0.003574371337890625,-0.009440548717975616,-0.0022136569023132324
1729114991553744400,3.631744384765625,-0.0029668807983398438,0.008729413151741028,-0.00939089059829712
1729114991591679000,3.669678955078125,0.011043548583984375,-0.007229924201965332,-0.0018476247787475586
1729114991629613600,3.707613525390625,-0.010624885559082031,0.004524126648902893,-0.0012765377759933472
1729114991667548200,3.745548095703125,-0.014499664306640625,0.009001128375530243,0.009876206517219543
1729114991705482800,3.783482666015625,0.0035247802734375,-0.0003408491611480713,0.00978367030620575
1729114991743417300,3.821417236328125,-0.0012493133544921875,-0.004250802099704742,0.0002595186233520508
1729114991781351700,3.8593515625,0.0056705474853515625,0.005175776779651642,0.00761374831199646
1729114991819286300,3.897286376953125,-0.01064300537109375,-0.0014878734946250916,-0.0019163638353347778
1729114991857220900,3.935220947265625,0.0031948089599609375,0.0010927915573120117,-0.013035506010055542
1729114991895155500,3.973155517578125,-0.0000362396240234375,-0.0009871870279312134,0.0017449557781219482
1729114991933090000,4.011090087890625,-0.00241851806640625,0.0036865025758743286,0.00014212727546691895
1729114991971024600,4.049024658203125,-0.004540443420410156,0.00559648871421814,-0.002345249056816101
1729114992008959200,4.086959228515625,-0.015230178833007812,-0.0011408030986785889,0.009668409824371338
1729114992046893800,4.124893798828125,0.0087738037109375,-0.0007096603512763977,0.003917485475540161
1729114992084828400,4.162828369140625,-0.0169219970703125,-0.0035971850156784058,0.001926511526107788
1729114992122763000,4.200762939453125,0.016183853149414062,0.0056177228689193726,-0.0028741955757141113
1729114992160697300,4.238697265625,-0.008299827575683594,0.0073242709040641785,-0.0009229481220245361
1729114992198632000,4.2766318359375,0.010807991027832031,-0.008625820279121399,-0.003037497401237488
1729114992236566500,4.31456640625,-0.0016660690307617188,-0.0016421973705291748,-0.002666771411895752
1729114992274501000,4.352501220703125,-0.005131721496582031,-0.0015919432044029236,0.0020576566457748413
1729114992312435700,4.390435791015625,0.014896392822265625,-0.008584119379520416,-0.002813294529914856
1729114992350370300,4.428370361328125,0.0029811859130859375,0.0006509944796562195,0.0036021769046783447
1729114992388305000,4.466304931640625,-0.0021162033081054688,0.011650510132312775,0.0015207678079605103
1729114992426239500,4.504239501953125,-0.0020151138305664062,0.0024915412068367004,0.006052494049072266
1729114992464174000,4.542174072265625,-0.003931999206542969,-0.0025411322712898254,-0.0013455450534820557
1729114992502108400,4.5801083984375,0.007670402526855469,0.000631973147392273,-0.00817495584487915
1729114992540043000,4.61804296875,-0.00345611572265625,-0.004098899662494659,-0.012899145483970642
1729114992577977600,4.6559775390625,0.00156402587890625,-0.001613415777683258,-0.0008793771266937256
1729114992615912200,4.693912109375,0.005542755126953125,0.009732253849506378,0.00567781925201416
1729114992653846800,4.7318466796875,-0.011007308959960938,0.00014620274305343628,0.0006105303764343262
1729114992691781400,4.769781494140625,-0.0031595230102539062,0.0074185654520988464,0.007544219493865967
1729114992729716000,4.807716064453125,0.007987022399902344,-0.004810743033885956,-0.013065993785858154
1729114992767650600,4.845650634765625,0.0009708404541015625,-0.002407573163509369,-0.005678072571754456
1729114992805585200,4.883585205078125,0.007399559020996094,-0.0006227344274520874,0.003557935357093811
1729114992843519700,4.921519775390625,-0.005710601806640625,0.0018256381154060364,-0.007909268140792847
1729114992881454000,4.9594541015625,0.01915264129638672,-0.005521014332771301,-0.007353737950325012
1729114992919388700,4.997388671875,-0.013315200805664062,-0.007318183779716492,-0.014027446508407593
1729114992957323300,5.0353232421875,0.0038270950317382812,-0.011562086641788483,0.004386842250823975
1729114992995257900,5.0732578125,0.00328826904296875,-0.000043176114559173584,-0.0010270178318023682
1729114993033192400,5.1111923828125,-0.003093719482421875,0.009251624345779419,-0.0011307001113891602
1729114993071127000,5.149126953125,0.0036478042602539062,-0.009462408721446991,0.003544911742210388
1729114993109061600,5.1870615234375,-0.001140594482421875,-0.0023271143436431885,-0.01048789918422699
1729114993146996200,5.224996337890625,0.0037527084350585938,-0.004466034471988678,0.01469510793685913
1729114993184930800,5.262930908203125,0.003973960876464844,-0.004236564040184021,0.002984270453453064
1729114993222865400,5.300865478515625,0.00643157958984375,-0.003802567720413208,-0.009586349129676819
1729114993260800000,5.338800048828125,-0.0006723403930664062,0.0031628012657165527,0.0046803951263427734
1729114993298734300,5.376734375,0.0037927627563476562,-0.0019170641899108887,-0.01374809443950653
1729114993336669000,5.4146689453125,-0.0006399154663085938,-0.0024294257164001465,-0.004434853792190552
1729114993374603500,5.452603515625,0.001438140869140625,-0.01171867549419403,-0.008712366223335266
1729114993412538000,5.4905380859375,-0.010275840759277344,0.002481892704963684,0.007722735404968262
1729114993450472700,5.52847265625,-0.0027608871459960938,-0.006709977984428406,-0.015174180269241333
1729114993488407300,5.5664072265625,0.011229515075683594,-0.00410287082195282,-0.0005822479724884033
1729114993526342000,5.604341796875,0.003987312316894531,-0.006548337638378143,-0.0070202648639678955
1729114993564276500,5.6422763671875,0.0035533905029296875,0.002620287239551544,-0.0019330084323883057
1729114993602211000,5.680211181640625,-0.0023565292358398438,0.0053584277629852295,-0.011358499526977539
1729114993640145700,5.718145751953125,0.006314277648925781,0.005291558802127838,0.007774442434310913
1729114993678080300,5.756080322265625,-0.005169868469238281,-0.004308253526687622,-0.0021866410970687866
1729114993716014800,5.794014892578125,-0.011518478393554688,-0.0015462711453437805,-0.0003825277090072632
1729114993753949200,5.83194921875,0.005049705505371094,-0.0019580498337745667,0.0016150474548339844
1729114993791883800,5.8698837890625,0.008776664733886719,0.004583075642585754,-0.005530625581741333
1729114993829818400,5.907818359375,0.00205230712890625,-0.006946362555027008,0.003790736198425293
1729114993867753000,5.9457529296875,0.006103515625,-0.0000026598572731018066,-0.0033388733863830566
1729114993905687600,5.9836875,-0.0008363723754882812,0.006951749324798584,-0.00114402174949646
1729114993943622100,6.0216220703125,-0.0015001296997070312,0.007126212120056152,0.0037007778882980347
1729114993981556700,6.059556640625,0.010342597961425781,0.0015271902084350586,-0.0027839094400405884
1729114994019491300,6.0974912109375,0.0049533843994140625,-0.007743999361991882,0.0014792382717132568
1729114994057426000,6.135426025390625,-0.0039958953857421875,-0.0024803578853607178,0.010554924607276917
1729114994095360500,6.173360595703125,-0.003814697265625,0.006855234503746033,0.012498095631599426
1729114994133295000,6.211295166015625,-0.0013933181762695312,0.002179957926273346,0.0013926327228546143
1729114994171229400,6.2492294921875,0.007928848266601562,0.00424589216709137,-0.0012193769216537476
1729114994209164000,6.2871640625,-0.0038557052612304688,-0.004086010158061981,-0.00164756178855896
1729114994247098600,6.3250986328125,0.007863044738769531,-0.004465267062187195,-0.013063013553619385
1729114994285033200,6.363033203125,-0.0015268325805664062,0.004822388291358948,0.0007314532995223999
1729114994322967800,6.4009677734375,0.007933616638183594,0.006592683494091034,0.007763877511024475
1729114994360902400,6.43890234375,-0.007993698120117188,-0.0028828009963035583,0.000682443380355835
1729114994398837000,6.4768369140625,0.001789093017578125,0.006376229226589203,0.004961341619491577
1729114994436771600,6.514771484375,-0.011842727661132812,0.006191857159137726,-0.011841043829917908
1729114994474706200,6.5527060546875,0.009033203125,-0.0048814937472343445,0.004727616906166077
1729114994512640800,6.590640869140625,-0.0033693313598632812,-0.004457637667655945,-0.0005067139863967896
1729114994550575400,6.628575439453125,0.004405021667480469,-0.0001920163631439209,0.003786534070968628
1729114994588510000,6.666510009765625,0.005562782287597656,-0.006691858172416687,0.00158749520778656
1729114994626444300,6.7044443359375,-0.0074748992919921875,-0.0014379248023033142,0.001759454607963562
1729114994664379000,6.74237890625,0.008282661437988281,0.0009853020310401917,0.00000451505184173584
1729114994702313500,6.7803134765625,-0.0051746368408203125,-0.008288010954856873,-0.006562128663063049
1729114994740248000,6.818248046875,0.010707855224609375,-0.0018391013145446777,0.0070712268352508545
1729114994778182700,6.8561826171875,-0.008158683776855469,0.0008710324764251709,-0.006937146186828613
1729114994816117200,6.8941171875,0.00365447998046875,0.005652114748954773,-0.001979351043701172
1729114994854051800,6.9320517578125,-0.006409645080566406,0.007427990436553955,0.009583309292793274
1729114994891986400,6.969986328125,0.009607315063476562,0.002349361777305603,-0.00003574788570404053
1729114994929921000,7.007921142578125,0.000026702880859375,-0.0022879987955093384,-0.002462834119796753
1729114994967855600,7.045855712890625,0.007559776306152344,0.00008814036846160889,-0.006770044565200806
1729114995005790200,7.083790283203125,-0.0088348388671875,-0.002896144986152649,0.0026872605085372925
1729114995043724500,7.121724609375,0.011966705322265625,0.004213340580463409,-0.004308328032493591
1729114995081659100,7.1596591796875,-0.008670806884765625,-0.000616803765296936,-0.007054388523101807
1729114995119593700,7.19759375,0.000682830810546875,0.003974631428718567,0.010993942618370056
1729114995157528300,7.2355283203125,-0.004286766052246094,-0.0010937228798866272,-0.021060094237327576
1729114995195463000,7.273462890625,-0.0038232803344726562,0.008082479238510132,0.007418841123580933
1729114995233397500,7.3113974609375,0.00312042236328125,0.0014474913477897644,0.0166177898645401
1729114995271332000,7.34933203125,-0.001739501953125,-0.003059856593608856,-0.007085695862770081
1729114995309266700,7.3872666015625,0.0029697418212890625,-0.0029551610350608826,-0.004739418625831604
1729114995347201300,7.425201171875,-0.013553619384765625,0.017366498708724976,-0.003418475389480591
1729114995385135900,7.463135986328125,0.008012771606445312,-0.010577470064163208,-0.005279108881950378
1729114995423070500,7.501070556640625,0.0004930496215820312,0.0011689215898513794,0.01328827440738678
1729114995461005000,7.539005126953125,0.0037059783935546875,-0.005685888230800629,-0.007560268044471741
1729114995498939400,7.576939453125,0.0009202957153320312,0.003640122711658478,0.0013438761234283447
1729114995536874000,7.6148740234375,-0.0010623931884765625,0.0011592581868171692,0.012446984648704529
1729114995574808600,7.65280859375,0.0035734176635742188,0.008006423711776733,-0.00691908597946167
1729114995612743200,7.6907431640625,0.0035657882690429688,0.005433015525341034,0.007063254714012146
1729114995650677800,7.728677734375,0.0007915496826171875,0.0003897473216056824,-0.007062643766403198
1729114995688612400,7.7666123046875,-0.008088111877441406,0.007700882852077484,0.00016492605209350586
1729114995726547000,7.804546875,0.015145301818847656,-0.010288611054420471,0.004850715398788452
1729114995764481500,7.8424814453125,-0.015507698059082031,-0.007620871067047119,0.0017462074756622314
1729114995802416000,7.880416015625,0.015433311462402344,-0.0005354508757591248,-0.012453824281692505
1729114995840350700,7.918350830078125,0.05193519592285156,0.030295871198177338,-0.041355207562446594
1729114995878285300,7.956285400390625,0.0097198486328125,0.4048042297363281,-0.09847851097583771
1729114995916220000,7.994219970703125,0.0911703109741211,0.7112677693367004,-0.03924378752708435
1729114995954154500,8.032154541015625,0.07451534271240234,1.0040441751480103,-0.027661070227622986
1729114995992088800,8.0700888671875,0.07905292510986328,1.200439214706421,-0.20338106155395508
1729114996030023400,8.1080234375,0.018823623657226562,1.231880784034729,-0.5364574193954468
1729114996067958000,8.1459580078125,-0.030328750610351562,1.3201842308044434,-0.3000811040401459
1729114996105892600,8.183892578125,-0.031167030334472656,1.2152262926101685,-0.045012205839157104
1729114996143827200,8.2218271484375,0.12829875946044922,0.9559009671211243,-0.11426694691181183
1729114996181761800,8.25976171875,0.2378368377685547,0.67475426197052,-0.39028066396713257
1729114996219696400,8.2976962890625,-0.10150527954101562,0.629509687423706,-0.5286164283752441
1729114996257631000,8.335630859375,0.8033781051635742,-0.07589221000671387,-0.09248769283294678
1729114996295565600,8.373565673828125,-0.47428131103515625,0.19211453199386597,-0.4642012417316437
1729114996333500200,8.411500244140624,0.24324512481689453,0.04374915361404419,-0.5861198902130127
1729114996371434800,8.449434814453125,-0.237640380859375,0.28381019830703735,-1.2511601448059082
1729114996409369300,8.487369384765625,0.5031557083129883,-0.10662174224853516,-0.49684298038482666
1729114996447304000,8.525303955078124,-1.637730598449707,0.10612058639526367,-1.2642667293548584
1729114996485238500,8.563238525390625,-1.0861101150512695,0.8985397815704346,-0.30482733249664307
1729114996523173000,8.601173095703125,2.124100685119629,0.5643059015274048,-0.1924186497926712
1729114996561107500,8.639107421875,-1.6278772354125977,0.837235152721405,-0.7777812480926514
1729114996599042000,8.6770419921875,4.017142295837402,0.27421998977661133,-0.4806349277496338
1729114996636976600,8.7149765625,1.2427234649658203,-0.048860907554626465,-0.4894945025444031
1729114996674911200,8.7529111328125,2.195469856262207,1.3742605447769165,0.31896400451660156
1729114996712845800,8.790845703125,-0.8048028945922852,0.7994396090507507,-1.3288756608963013
1729114996750780400,8.828780517578124,3.837430000305176,0.41769593954086304,0.16258251667022705
1729114996788715000,8.866715087890626,0.2739105224609375,1.1751549243927002,-0.49142491817474365
1729114996826649600,8.904649658203125,0.3463859558105469,1.1549460887908936,-0.2798457145690918
1729114996864584200,8.942584228515624,0.45473575592041016,1.2225120067596436,0.2957509160041809
1729114996902518800,8.980518798828125,-0.03333473205566406,1.2070603370666504,-0.26639848947525024
1729114996940453400,9.018453369140625,0.6686687469482422,0.6291438341140747,-0.8703267574310303
1729114996978388000,9.056387939453124,1.4995288848876953,1.004903793334961,0.956964910030365
1729114997016322300,9.094322265625,0.7644367218017578,0.7120304107666016,-0.38814476132392883
1729114997054257000,9.1322568359375,0.17448711395263672,-0.3649812340736389,-0.3273463845252991
1729114997092191500,9.17019140625,-3.793951988220215,-0.0013625025749206543,0.38104841113090515
1729114997130126000,9.2081259765625,0.4140510559082031,-0.43555790185928345,-0.2864624857902527
1729114997168060700,9.246060791015625,0.31236934661865234,0.0125809907913208,0.015891332179307938
1729114997205995300,9.283995361328126,1.0464868545532227,0.09263122081756592,1.90090811252594
1729114997243929900,9.321929931640625,-2.8119025230407715,-0.533257007598877,0.12573406100273132
1729114997281864400,9.359864501953124,3.7038841247558594,-2.0710299015045166,1.3197489976882935
1729114997319799000,9.397799072265625,-3.833512783050537,-0.9847090244293213,1.7440669536590576
1729114997357733600,9.435733642578125,-0.8155546188354492,-1.6499536037445068,1.2050907611846924
1729114997395668200,9.473668212890624,-0.3605794906616211,-1.958113670349121,2.9130375385284424
1729114997433602800,9.511602783203125,-2.561915397644043,-1.1954309940338135,0.928476095199585
1729114997471537400,9.549537353515625,1.4703788757324219,-1.3722600936889648,2.416118621826172
1729114997509472000,9.587471923828126,2.432267189025879,-0.6557751893997192,2.512395143508911
1729114997547406600,9.625406494140625,0.27667713165283203,-1.088861346244812,2.494910717010498
1729114997585341200,9.663341064453125,-1.7321357727050781,-1.1597180366516113,2.117734432220459
1729114997623275800,9.70127587890625,2.1089868545532227,-2.4076080322265625,1.7029016017913818
1729114997661210000,9.739210205078125,1.1312503814697266,0.499481737613678,1.449658751487732
1729114997699144700,9.777144775390624,-5.823492527008057,0.5557504892349243,1.636710286140442
1729114997737079300,9.815079345703126,3.5459117889404297,-1.301403284072876,4.359723091125488
1729114997775014000,9.853013916015625,0.6202239990234375,-0.6020443439483643,3.430098533630371
1729114997812948500,9.890948486328124,-5.755094528198242,0.3325451612472534,1.110357642173767
1729114997850883000,9.928883056640625,3.194525718688965,-0.9917256832122803,2.3943519592285156
1729114997888817700,9.966817626953125,-2.018956184387207,-0.33179178833961487,1.7830792665481567
1729114997926752300,10.004752197265624,0.8898344039916992,0.2768256664276123,0.5770705938339233
1729114997964686800,10.042686767578125,0.8189287185668945,-0.4678663909435272,0.3387150764465332
1729114998002621400,10.080621337890625,1.0223636627197266,-0.41177114844322205,0.36849382519721985
1729114998040556000,10.11855615234375,-3.3414034843444824,0.07769161462783813,0.24817679822444916
1729114998078490600,10.15649072265625,-0.12658309936523438,-1.4285513162612915,0.22217877209186554
1729114998116425200,10.19442529296875,0.8075628280639648,-0.8015844821929932,0.5117068290710449
1729114998154359800,10.23235986328125,-0.8045787811279297,-0.10307270288467407,1.1774327754974365
1729114998192294100,10.270294189453125,2.548330307006836,-1.5018179416656494,0.882574737071991
1729114998230228700,10.308228759765624,-0.6455783843994141,-0.5390692949295044,-1.3867839574813843
1729114998268163300,10.346163330078125,-2.6338815689086914,-1.3118362426757812,-1.709399700164795
1729114998306098000,10.384097900390625,0.030170440673828125,-1.2100352048873901,-0.38885337114334106
1729114998344032500,10.422032470703124,-3.6279592514038086,-1.0587427616119385,-0.3510943353176117
1729114998381967000,10.459967041015625,3.126659393310547,-1.447538137435913,0.2666091322898865
1729114998419901700,10.497901611328125,-2.8853282928466797,-0.45444631576538086,-0.8507064580917358
1729114998457836300,10.535836181640626,1.770125389099121,-0.5930428504943848,-0.1215236634016037
1729114998495771000,10.57377099609375,0.9601402282714844,1.255875825881958,-0.5841286182403564
1729114998533705500,10.61170556640625,0.17591381072998047,0.2765633761882782,-1.6028672456741333
1729114998571640000,10.64964013671875,-0.7359218597412109,-1.1348135471343994,-1.7098352909088135
1729114998609574700,10.68757470703125,-1.917231559753418,-1.129925012588501,-1.2274041175842285
1729114998647509200,10.72550927734375,1.2898445129394531,-0.8970208168029785,-1.4271188974380493
1729114998685443800,10.76344384765625,-0.4695463180541992,0.028958767652511597,-2.759744882583618
1729114998723378400,10.80137841796875,-0.1035003662109375,-0.40148288011550903,-1.242488980293274
1729114998761313000,10.83931298828125,0.6288557052612305,-0.21622785925865173,-0.8651560544967651
1729114998799247400,10.877247314453125,-1.812276840209961,-0.1843549609184265,-1.635628342628479
1729114998837182000,10.915181884765625,1.1742258071899414,-0.6472510099411011,-1.6076306104660034
1729114998875116500,10.953116455078124,-2.118960380554199,-0.30343160033226013,-0.9824903011322021
1729114998913051100,10.991051025390625,1.1993188858032227,0.12725098431110382,-0.8618940114974976
1729114998950985700,11.02898583984375,2.12827205657959,-1.4767264127731323,-0.8935853838920593
1729114998988920300,11.06692041015625,0.4276752471923828,-0.9753625392913818,-1.323213815689087
1729114999026855000,11.10485498046875,1.1134252548217773,-0.6480668187141418,-1.1464080810546875
1729114999064789500,11.14278955078125,1.1080102920532227,-0.5325101017951965,-0.32680246233940125
1729114999102724000,11.18072412109375,-1.9780025482177734,0.339663565158844,-2.0308191776275635
1729114999140658700,11.21865869140625,-0.3416461944580078,-0.6776074171066284,-0.9824652671813965
1729114999178593300,11.25659326171875,0.1828165054321289,-1.2169568538665771,-1.3710834980010986
1729114999216528000,11.29452783203125,3.281949043273926,-0.6195156574249268,-1.4640299081802368
1729114999254462500,11.33246240234375,-2.359035015106201,0.4799729585647583,-1.7242752313613892
1729114999292397000,11.37039697265625,-0.29922962188720703,-0.46171852946281433,-0.667862057685852
1729114999330331600,11.40833154296875,0.6595935821533203,-0.1831974983215332,-1.845658540725708
1729114999368266200,11.446266357421875,1.7089014053344727,-0.030238449573516846,-1.5324296951293945
1729114999406200800,11.484200927734374,-2.313077449798584,0.882820725440979,-2.3417444229125977
1729114999444135400,11.522135498046875,0.5655002593994141,-0.25467902421951294,-1.7544326782226562
1729114999482070000,11.560070068359375,0.5727710723876953,0.1672530621290207,0.45833608508110046
1729114999520004400,11.59800439453125,-2.365776538848877,0.44789010286331177,0.19137968122959137
1729114999557939000,11.63593896484375,1.7769584655761719,-1.6109330654144287,-0.17064353823661804
1729114999595873500,11.67387353515625,0.7919445037841797,-3.0786325931549072,1.6272530555725098
1729114999633808100,11.71180810546875,-0.10783958435058594,-2.7121918201446533,0.8768530488014221
1729114999671742700,11.74974267578125,1.4626655578613281,-3.09989070892334,0.7966206669807434
1729114999709677300,11.78767724609375,2.7024106979370117,-3.0718331336975098,0.8053901791572571
1729114999747612000,11.82561181640625,0.08829784393310547,-2.634526252746582,0.03353828191757202
1729114999785546500,11.86354638671875,0.42923450469970703,-2.188998222351074,-0.1821373701095581
1729114999823481000,11.901481201171874,-2.397270679473877,-1.4228622913360596,0.6039696335792542
1729114999861415700,11.939415771484375,0.5333986282348633,-0.8505047559738159,-1.2209140062332153
1729114999899350300,11.977350341796875,-0.12534809112548828,-1.059167504310608,0.11735430359840393
1729114999937284900,12.015284912109376,-0.46385860443115234,-2.157186269760132,-0.7953833341598511
1729114999975219500,12.053219482421875,-0.29561901092529297,-1.5799329280853271,0.8994168043136597
1729115000013154000,12.091154052734375,-0.4381895065307617,-1.6786534786224365,0.7141850590705872
1729115000051088600,12.129088623046876,0.9387722015380859,-2.0520639419555664,0.21200409531593323
1729115000089023200,12.167023193359375,-1.4083337783813477,-1.686896562576294,-0.09698605537414551
1729115000126957800,12.204957763671874,1.0614356994628906,-2.1618266105651855,0.11070725321769714
1729115000164892400,12.242892333984376,-0.5158519744873047,-1.9128774404525757,0.15619982779026031
1729115000202827000,12.280826904296875,0.228973388671875,-1.8493528366088867,0.21230599284172058
1729115000240761600,12.31876171875,1.0399999618530273,-2.15425968170166,-0.3462064862251282
1729115000278696200,12.3566962890625,-0.28413963317871094,-2.4212450981140137,-0.574610710144043
1729115000316630800,12.394630859375,0.22336959838867188,-1.9229049682617188,-0.07772520184516907
1729115000354565000,12.432565185546874,-0.20875072479248047,-1.9293701648712158,-0.2238084077835083
1729115000392499700,12.470499755859375,0.006991386413574219,-1.760634422302246,0.44741910696029663
1729115000430434300,12.508434326171875,-0.09410667419433594,-1.6458337306976318,0.16550827026367188
1729115000468369000,12.546368896484376,0.04445838928222656,-1.3489081859588623,0.12980923056602478
1729115000506303500,12.584303466796875,-0.11291694641113281,-1.0435547828674316,0.18484565615653992
1729115000544238000,12.622238037109375,0.07773685455322266,-0.6300148963928223,0.0916638970375061
1729115000582172700,12.660172607421876,-0.05217266082763672,-0.19867318868637085,0.053967177867889404
1729115000620107300,12.698107177734375,0.054129600524902344,0.12172740697860718,0.04540592432022095
1729115000658041900,12.736041748046874,-0.03523826599121094,0.37917399406433105,0.1409856379032135
1729115000695976400,12.7739765625,0.03264427185058594,0.5682007670402527,0.09601917862892151
1729115000733911000,12.8119111328125,-0.030381202697753906,0.7444418668746948,0.046067237854003906
1729115000771845600,12.849845703125,0.030793190002441406,0.8139041662216187,0.24426484107971191
1729115000809780200,12.8877802734375,-0.1261758804321289,0.7772101163864136,0.5394007563591003
1729115000847714800,12.92571484375,0.07105731964111328,0.543237030506134,0.17982079088687897
1729115000885649400,12.9636494140625,-0.02706623077392578,0.40503087639808655,-0.04109427332878113
1729115000923584000,13.001583984375,-0.006428718566894531,0.34500232338905334,0.17600050568580627
1729115000961518600,13.0395185546875,-0.05380439758300781,0.27804815769195557,0.07838530838489532
1729115000999453200,13.077453125,0.01720714569091797,0.18953019380569458,0.08278584480285645
1729115001037387800,13.1153876953125,-0.007742881774902344,0.13892202079296112,0.08260323107242584
1729115001075322400,13.153322265625,0.01848888397216797,0.08232037723064423,0.06260927021503448
1729115001113257000,13.191257080078126,-0.021193504333496094,0.07854752242565155,0.06518234312534332
1729115001151191600,13.229191650390625,-0.0040760040283203125,0.05101783573627472,0.05554965138435364
1729115001189126100,13.267126220703124,0.0016336441040039062,0.04951822757720947,0.06482440233230591
1729115001227060500,13.305060546875,0.0001964569091796875,0.07293885946273804,0.04881735146045685
1729115001264995000,13.3429951171875,0.0029306411743164062,0.07398922741413116,0.033072635531425476
1729115001302929700,13.3809296875,0.004885673522949219,0.11940331012010574,0.2073899358510971
1729115001340864300,13.4188642578125,-0.06746387481689453,0.2074674367904663,0.24955661594867706
1729115001378798800,13.456798828125,-0.20922279357910156,0.40776798129081726,0.18235214054584503
1729115001416733400,13.4947333984375,0.25830936431884766,0.024889454245567322,0.13842159509658813
1729115001454668000,13.53266796875,0.011075019836425781,0.15595774352550507,0.9203783273696899
1729115001492602600,13.5706025390625,0.19812679290771484,0.07782196998596191,1.1144005060195923
1729115001530537200,13.608537109375,-0.046799659729003906,-0.2908797264099121,0.7260258793830872
1729115001568471800,13.646471923828125,-0.08196449279785156,-0.12946005165576935,0.8185723423957825
1729115001606406400,13.684406494140624,0.11537742614746094,-0.21673451364040375,1.394180417060852
1729115001644341000,13.722341064453126,-0.15482330322265625,-0.2830973267555237,1.0232114791870117
1729115001682275600,13.760275634765625,0.24018478393554688,-0.7964670658111572,0.5481987595558167
1729115001720210200,13.798210205078124,-0.08386611938476562,-0.7909649014472961,0.18134258687496185
1729115001758144800,13.836144775390625,-0.3224020004272461,-0.33277764916419983,0.137224942445755
1729115001796079400,13.874079345703125,-0.3505868911743164,-0.23669978976249695,-0.45850902795791626
1729115001834014000,13.912013916015624,0.14542293548583984,-0.22977523505687714,-0.5188288688659668
1729115001871948500,13.949948486328125,0.14630603790283203,-0.3776499032974243,-0.6843349933624268
1729115001909883100,13.987883056640625,0.04358196258544922,-0.27746474742889404,-0.4782068133354187
1729115001947817700,14.025817626953126,0.11449813842773438,-0.22757479548454285,-0.3235071301460266
1729115001985752300,14.06375244140625,0.08543205261230469,-0.2802656292915344,-0.5450457334518433
1729115002023687000,14.10168701171875,0.022003173828125,-0.22812151908874512,-0.11021007597446442
1729115002061621500,14.13962158203125,0.023591995239257812,-0.21834896504878998,0.22291162610054016
1729115002099556000,14.17755615234375,0.05401325225830078,-0.3155829906463623,0.08729708194732666
1729115002137490400,14.215490478515624,-0.0010347366333007812,-0.2978422939777374,0.25195589661598206
1729115002175425000,14.253425048828126,0.0538787841796875,-0.4661986231803894,-0.4287359118461609
1729115002213359600,14.291359619140625,0.04597187042236328,-0.15427355468273163,0.25637286901474
1729115002251294200,14.329294189453124,0.2611980438232422,-0.32645532488822937,0.12515518069267273
1729115002289228800,14.367228759765625,0.24508190155029297,-0.3382883071899414,0.4200505316257477
1729115002327163400,14.405163330078125,-0.03802490234375,-0.2943560481071472,0.25927069783210754
1729115002365098000,14.443097900390624,-0.05045509338378906,-0.45387426018714905,-0.10804826021194458
1729115002403032600,14.481032470703125,-0.26123619079589844,-0.25669240951538086,0.005164444446563721
1729115002440967200,14.51896728515625,0.37275123596191406,-0.4030267894268036,0.006134897470474243
1729115002478901800,14.55690185546875,-0.03388214111328125,-0.4286121726036072,-0.2396927922964096
1729115002516836400,14.59483642578125,-0.19123363494873047,-0.3623020350933075,-0.10660138726234436
1729115002554771000,14.63277099609375,-0.6317167282104492,-0.0747605562210083,0.1257774829864502
1729115002592705500,14.67070556640625,0.28507423400878906,-0.6262779235839844,-0.32340359687805176
1729115002630640000,14.70864013671875,-0.09279346466064453,-0.35861921310424805,-0.17380189895629883
1729115002668574700,14.74657470703125,0.20282554626464844,-0.43022024631500244,-0.17836609482765198
1729115002706509300,14.78450927734375,-0.2272167205810547,-0.2729857265949249,-0.20788568258285522
1729115002744444000,14.82244384765625,-0.013901710510253906,-0.424503356218338,-0.22661817073822021
1729115002782378500,14.86037841796875,-0.14413738250732422,-0.11265578866004944,0.0038139522075653076
1729115002820313000,14.89831298828125,0.022989273071289062,-0.12210166454315186,-0.16124007105827332
1729115002858247700,14.93624755859375,-0.11511802673339844,-0.24092820286750793,-0.30981728434562683
1729115002896182300,14.974182373046874,0.0173187255859375,-0.3678850829601288,-0.1199798583984375
1729115002934116900,15.012116943359375,-0.006145477294921875,-0.4310442805290222,-0.6933953166007996
1729115002972051500,15.050051513671875,0.05650806427001953,-0.2939035892486572,-0.3933924436569214
1729115003009986000,15.087986083984376,-0.0072536468505859375,-0.17142659425735474,-0.5587087869644165
1729115003047920600,15.125920654296875,-0.17571163177490234,-0.03423595428466797,-0.2954953908920288
1729115003085855200,15.163855224609375,0.07602596282958984,-0.04569178819656372,-0.21608448028564453
1729115003123789800,15.201789794921876,-0.202239990234375,0.03998737037181854,-0.043655335903167725
1729115003161724400,15.239724365234375,0.03624439239501953,-0.139274463057518,-0.14278307557106018
1729115003199659000,15.277658935546874,-0.30903053283691406,-0.23548108339309692,-0.5190039873123169
1729115003237593600,15.315593505859376,0.11968612670898438,-0.4181942939758301,-0.6697585582733154
1729115003275528000,15.35352783203125,-0.0386810302734375,-0.4296635091304779,-1.2322925329208374
1729115003313462500,15.391462646484374,0.23982715606689453,-1.0491600036621094,-2.2884104251861572
1729115003351397000,15.429397216796875,-0.04698657989501953,-0.8869491219520569,-1.565298080444336
1729115003389331700,15.467331787109375,0.02460193634033203,-0.8859482407569885,-0.5221942663192749
1729115003427266300,15.505266357421876,-0.2756814956665039,-0.23742404580116272,0.1353982836008072
1729115003465201200,15.543201171875,-0.04377937316894531,-0.10074040293693542,-0.2931157946586609
1729115003503135500,15.581135498046875,-0.22184371948242188,0.08495402336120605,-0.26435205340385437
1729115003541070000,15.619070068359376,0.0712738037109375,0.31580373644828796,0.2856447994709015
1729115003579004700,15.657004638671875,-0.11034488677978516,0.393699586391449,-0.36411237716674805
1729115003616939300,15.694939208984374,0.037337303161621094,0.5299149751663208,-0.09629625082015991
1729115003654873900,15.732873779296876,-0.07230186462402344,0.5607824921607971,-0.09281450510025024
1729115003692808400,15.770808349609375,0.040276527404785156,0.47552260756492615,-0.18197859823703766
1729115003730743000,15.808742919921874,-0.021103858947753906,0.3835458755493164,-0.1099025160074234
1729115003768677600,15.846677734375,0.026157379150390625,0.2810664474964142,-0.13945172727108002
1729115003806612200,15.8846123046875,-0.0026702880859375,0.21547472476959229,-0.07446542382240295
1729115003844546800,15.922546875,0.0027761459350585938,0.16295592486858368,-0.1151307076215744
1729115003882481400,15.9604814453125,-0.0010404586791992188,0.12569864094257355,-0.08143673837184906
1729115003920416000,15.998416015625,0.00397491455078125,0.10086270421743393,-0.0827641487121582
1729115003958350600,16.0363505859375,0.007311820983886719,0.08743765950202942,-0.04978542774915695
1729115003996285200,16.07428515625,-0.006165504455566406,0.08662532269954681,-0.06383241713047028
1729115004034219800,16.1122197265625,0.009322166442871094,0.07306256145238876,-0.04616464674472809
1729115004072154400,16.150154296875,-0.004498481750488281,0.07566305249929428,-0.05530215799808502
1729115004110089000,16.1880888671875,-0.0022554397583007812,0.07245652377605438,-0.04571849852800369
1729115004148023600,16.2260234375,-0.0051517486572265625,0.06042531132698059,-0.03995594382286072
1729115004185958100,16.263958251953124,-0.0037174224853515625,0.06994246691465378,-0.024641938507556915
1729115004223892700,16.301892822265625,-0.0015544891357421875,0.049916647374629974,-0.03136139363050461
1729115004261827300,16.339827392578126,0.0004968643188476562,0.037456825375556946,-0.03747536242008209
1729115004299762000,16.377761962890624,0.0028285980224609375,0.03527786582708359,-0.034990862011909485
1729115004337696500,16.415696533203125,-0.010416030883789062,0.02891429513692856,-0.025112107396125793
1729115004375631000,16.453631103515626,0.012063980102539062,0.03882209584116936,0.00013725459575653076
1729115004413565700,16.491565673828124,0.0025949478149414062,0.026173114776611328,-0.018651306629180908
1729115004451500300,16.529500244140625,0.011735916137695312,0.02065024897456169,-0.014448985457420349
1729115004489435000,16.567434814453126,-0.014405250549316406,0.02527085319161415,-0.011419668793678284
1729115004527369500,16.605369384765623,0.0038576126098632812,0.025122739374637604,-0.0038363784551620483
1729115004565304000,16.643303955078125,-0.021181106567382812,0.01097816601395607,-0.007503882050514221
1729115004603238700,16.68123876953125,0.017023086547851562,0.09337574243545532,-0.009037971496582031
1729115004641173200,16.71917333984375,0.028985977172851562,0.19298042356967926,-0.019391685724258423
1729115004679107800,16.75710791015625,-0.046143531799316406,0.44372791051864624,-0.00691734254360199
1729115004717042400,16.79504248046875,0.0262908935546875,0.6576706767082214,0.10221807658672333
1729115004754977000,16.83297705078125,-0.02151775360107422,0.36320507526397705,0.0746828019618988
1729115004792911600,16.87091162109375,-0.03414630889892578,0.3840075731277466,-0.05496135354042053
1729115004830846000,16.908845947265625,0.05881500244140625,0.13820688426494598,0.03750991076231003
1729115004868780500,16.946780517578127,-0.024214744567871094,0.11633482575416565,0.045198455452919006
1729115004906715100,16.984715087890624,0.060357093811035156,0.29909586906433105,-0.0315500944852829
1729115004944649700,17.022649658203125,-0.15624237060546875,0.6384787559509277,-0.046353816986083984
1729115004982584300,17.060584228515626,0.116851806640625,0.8130102157592773,0.13828693330287933
1729115005020519000,17.098518798828124,0.1233224868774414,0.787026047706604,-0.10731454193592072
1729115005058453500,17.13645361328125,0.10319995880126953,0.7130492329597473,0.06783752143383026
1729115005096388000,17.17438818359375,0.23606395721435547,0.6018417477607727,0.05026153475046158
1729115005134322700,17.21232275390625,-0.2059164047241211,0.7882274985313416,0.1666380912065506
1729115005172257300,17.25025732421875,1.2757949829101562,0.3605270981788635,-0.06931331753730774
1729115005210192000,17.28819189453125,0.9023828506469727,0.5695263147354126,-0.047899357974529266
1729115005248126500,17.32612646484375,0.6856870651245117,0.6375234127044678,-0.08812855929136276
1729115005286061000,17.36406103515625,1.0910148620605469,0.37942683696746826,-0.11742202192544937
1729115005323995600,17.40199560546875,0.4705801010131836,0.8106668591499329,0.3269767761230469
1729115005361930200,17.43993017578125,-0.3660440444946289,0.5786671042442322,0.1802252233028412
1729115005399864800,17.47786474609375,0.3662538528442383,0.619274914264679,-1.054885745048523
1729115005437799400,17.51579931640625,1.2848882675170898,0.7150372862815857,0.5832915306091309
1729115005475734000,17.553734130859375,2.956364631652832,0.4750305414199829,0.5893774032592773
1729115005513668600,17.591668701171876,-1.7136659622192383,1.4164762496948242,-0.3773667812347412
1729115005551603200,17.629603271484374,1.8518142700195312,0.6770771741867065,0.3251149654388428
1729115005589537800,17.667537841796875,0.18064594268798828,1.5976967811584473,0.3965767025947571
1729115005627472400,17.705472412109376,-2.923344612121582,1.1883119344711304,-0.9265424013137817
1729115005665407000,17.743406982421874,0.6209497451782227,0.8516912460327148,-0.5060945749282837
1729115005703341600,17.781341552734375,1.6809701919555664,0.5469346046447754,0.6788133382797241
1729115005741276200,17.819276123046876,1.7574338912963867,0.33768951892852783,0.4755878448486328
1729115005779210800,17.857210693359374,-0.8668031692504883,0.6937551498413086,-0.34491264820098877
1729115005817145300,17.895145263671875,0.6249761581420898,-0.13698184490203857,-0.15108847618103027
1729115005855080000,17.933079833984376,1.7250089645385742,0.2660257816314697,-1.356808066368103
1729115005893014500,17.9710146484375,-5.1262664794921875,-0.7040377259254456,-1.535638689994812
1729115005930949000,18.00894921875,2.936398506164551,-0.5624667406082153,-0.7366926074028015
1729115005968883700,18.0468837890625,1.776956558227539,-1.694559097290039,-2.484774112701416
1729115006006818300,18.084818359375,-0.3270292282104492,-0.7677167057991028,-2.9728293418884277
1729115006044753000,18.1227529296875,-1.2592792510986328,-0.03932011127471924,-2.62496280670166
1729115006082687500,18.1606875,4.493111610412598,-2.091116428375244,-1.6393647193908691
1729115006120622000,18.1986220703125,-2.485316276550293,-1.3345961570739746,-1.8069806098937988
1729115006158556700,18.236556640625,-0.39760589599609375,-2.277675151824951,-4.8018646240234375
1729115006196491300,18.2744912109375,0.4988880157470703,-1.6638062000274658,-1.8048661947250366
1729115006234425900,18.31242578125,0.713252067565918,-2.1582443714141846,-1.9418156147003174
1729115006272360400,18.3503603515625,-0.9576997756958008,-1.0159454345703125,-2.7285027503967285
1729115006310295000,18.388294921875,0.9329299926757812,-0.6907055377960205,-0.9716408848762512
1729115006348229600,18.426229736328125,0.07074356079101562,-0.6501151323318481,-1.090270757675171
1729115006386164200,18.464164306640626,0.9693746566772461,-0.4791855812072754,-1.6685035228729248
1729115006424098800,18.502098876953124,0.22705650329589844,-0.1320803165435791,-2.402419090270996
1729115006462033400,18.540033447265625,-3.1979098320007324,0.19357037544250488,-2.0122644901275635
1729115006499968000,18.577968017578126,1.388153076171875,0.05892062187194824,-1.683403730392456
1729115006537902600,18.615902587890623,-1.1369800567626953,0.1982511281967163,-0.8524085283279419
1729115006575837200,18.653837158203125,-1.4231653213500977,0.6813661456108093,-1.148259162902832
1729115006613771800,18.691771728515626,-2.1531119346618652,0.6097426414489746,1.6383484601974487
1729115006651706000,18.7297060546875,2.6786060333251953,-1.5062777996063232,2.462249994277954
1729115006689640700,18.767640625,-0.6565895080566406,-0.07558220624923706,-0.6521717309951782
1729115006727575600,18.805575439453126,0.6193971633911133,-1.5373125076293945,0.004557069391012192
1729115006765510100,18.84351025390625,-2.148876667022705,-0.8178271055221558,-0.06649397313594818
1729115006803444700,18.88144482421875,-3.0447592735290527,0.24385690689086914,0.7441774606704712
1729115006841379300,18.91937939453125,2.116034507751465,-2.0853161811828613,0.1694585084915161
1729115006879313700,18.957313720703127,-0.12944412231445312,-0.22457170486450195,1.2768967151641846
1729115006917248300,18.995248291015624,-1.0483598709106445,-0.27851730585098267,1.1668728590011597
1729115006955182800,19.033182861328125,0.31876659393310547,-1.5691454410552979,1.0818814039230347
1729115006993117400,19.071117431640626,0.8863458633422852,-0.8734129667282104,2.1663897037506104
1729115007031052000,19.109052001953124,-3.374185562133789,-1.1279585361480713,1.3312158584594727
1729115007068986600,19.146986572265625,0.4975252151489258,-1.6954164505004883,1.8623559474945068
1729115007106921200,19.184921142578126,-1.0883893966674805,-0.31061625480651855,2.6158130168914795
1729115007144855800,19.222855712890624,1.5552759170532227,-1.2086354494094849,2.2111663818359375
1729115007182790400,19.260790283203125,0.3508901596069336,-1.4622175693511963,1.7483060359954834
1729115007220725000,19.29872509765625,-2.4500393867492676,0.8160226345062256,2.44946551322937
1729115007258659600,19.33665966796875,1.664525032043457,-0.7387349605560303,2.454390048980713
1729115007296594200,19.37459423828125,-2.066944122314453,-1.3446996212005615,1.5410329103469849
1729115007334528800,19.41252880859375,-0.2070903778076172,-0.30784398317337036,1.4677703380584717
1729115007372463400,19.45046337890625,0.7435178756713867,-0.7573328018188477,0.950751006603241
1729115007410398000,19.48839794921875,1.1587934494018555,-0.5877749919891357,1.7862892150878906
1729115007448332500,19.52633251953125,-2.2458744049072266,0.018314331769943237,2.7041738033294678
1729115007486267100,19.56426708984375,-1.9953479766845703,-1.2387925386428833,1.2706613540649414
1729115007524201700,19.60220166015625,4.340227127075195,-1.2887179851531982,0.3104051947593689
1729115007562136300,19.64013623046875,-0.4396486282348633,-0.3875918388366699,0.952256441116333
1729115007600071000,19.67807080078125,-1.0084943771362305,-0.2615937292575836,0.7486958503723145
1729115007638005500,19.716005615234376,0.8912744522094727,-0.38873401284217834,0.21374084055423737
1729115007675940000,19.753940185546874,-8.558326721191406,0.32654204964637756,0.5118339657783508
1729115007713874700,19.791874755859375,4.517516136169434,0.871832549571991,-2.8074755668640137
1729115007751809300,19.829809326171876,6.462800979614258,-0.4278019666671753,-3.744783639907837
1729115007789743900,19.867743896484374,-3.9976253509521484,0.3777764141559601,-2.452672004699707
1729115007827678500,19.905678466796875,2.7464656829833984,-1.249868631362915,0.8340801000595093
1729115007865613000,19.943613037109376,3.2051267623901367,-1.3241273164749146,-0.030186079442501068
1729115007903547600,19.981547607421874,-2.235891342163086,-0.02188161015510559,-0.5067885518074036
1729115007941482200,20.019482177734375,-4.174842357635498,-0.7894617319107056,-0.8707659840583801
1729115007979416800,20.057416748046876,-0.18784236907958984,-0.08312639594078064,0.2436109334230423
1729115008017351400,20.095351318359373,-4.072039604187012,-0.5810731053352356,-0.05820213258266449
1729115008055286000,20.1332861328125,-0.15585613250732422,-1.4052140712738037,0.7632763981819153
1729115008093220600,20.171220703125,-0.8035221099853516,-0.5910663604736328,1.1155773401260376
1729115008131155200,20.2091552734375,1.9394865036010742,-0.6343368291854858,-0.05909202992916107
1729115008169089800,20.24708984375,2.2330074310302734,-0.3577495813369751,0.6884573101997375
1729115008207024400,20.2850244140625,1.8265609741210938,-0.7575660943984985,1.4924644231796265
1729115008244959000,20.322958984375,-0.30483341217041016,-1.1029995679855347,-0.021451272070407867
1729115008282893600,20.3608935546875,2.4027328491210938,-2.4242184162139893,0.10318487882614136
1729115008320828200,20.398828125,1.1888198852539062,-2.8273770809173584,0.20622621476650238
1729115008358762800,20.4367626953125,-1.2224502563476562,-2.0870752334594727,-1.0686832666397095
1729115008396697300,20.474697265625,0.09365367889404297,-2.244015693664551,0.6931251287460327
1729115008434632000,20.5126318359375,-0.5264120101928711,-2.7231783866882324,-0.022220462560653687
1729115008472566500,20.55056640625,-2.0662670135498047,-1.0100066661834717,0.2657930850982666
1729115008510501000,20.588501220703126,2.410374641418457,-3.1548521518707275,0.44476252794265747
1729115008548435700,20.626435791015624,-1.565678596496582,-2.4827754497528076,-0.4773413836956024
1729115008586370300,20.664370361328125,0.2584695816040039,-1.8515994548797607,0.5582839250564575
1729115008624305000,20.702304931640626,-0.435150146484375,-2.1582882404327393,-0.011834830045700073
1729115008662239500,20.740239501953123,0.5571146011352539,-2.3161802291870117,-0.23876971006393433
1729115008700174000,20.778174072265625,-0.0044040679931640625,-2.099630832672119,0.13990074396133423
1729115008738108700,20.816108642578126,-0.40732860565185547,-2.5012738704681396,-0.5173022747039795
1729115008776043300,20.854043212890623,1.9146137237548828,-2.637266159057617,0.8717409372329712
1729115008813977900,20.891977783203124,-0.643977165222168,-1.6104161739349365,0.022433504462242126
1729115008851912400,20.929912353515626,-0.41895198822021484,-1.4480490684509277,-0.8010294437408447
1729115008889847000,20.967846923828127,-0.6774463653564453,-1.7242754697799683,-0.06755699217319489
1729115008927781600,21.00578173828125,0.61798095703125,-2.0346946716308594,0.2623664140701294
1729115008965716200,21.04371630859375,-0.7046012878417969,-2.0482821464538574,-0.321250319480896
1729115009003650800,21.08165087890625,0.3148527145385742,-1.8269679546356201,-0.04247891902923584
1729115009041585400,21.11958544921875,-0.23796367645263672,-1.7441455125808716,-0.19241927564144135
1729115009079520000,21.15752001953125,0.1684732437133789,-1.688802719116211,-0.005228288471698761
1729115009117454600,21.19545458984375,-0.07855415344238281,-1.48272705078125,-0.0504806712269783
1729115009155389200,21.23338916015625,0.04614734649658203,-1.1497821807861328,-0.051475077867507935
1729115009193323800,21.27132373046875,-0.035546302795410156,-0.6029940843582153,-0.26235803961753845
1729115009231258400,21.30925830078125,0.038788795471191406,-0.20084735751152039,0.09789091348648071
1729115009269193000,21.34719287109375,-0.030556678771972656,0.165804922580719,-0.2944944500923157
1729115009307127600,21.38512744140625,0.012476921081542969,0.40123265981674194,-0.06453211605548859
1729115009345062100,21.423062255859374,-0.013966560363769531,0.5857518911361694,-0.10088154673576355
1729115009382996700,21.460996826171876,0.012605667114257812,0.6067144870758057,-0.16007882356643677
1729115009420931300,21.498931396484377,-0.006511688232421875,0.5944193601608276,-0.04808002710342407
1729115009458866000,21.536865966796874,0.0098419189453125,0.5680845975875854,-0.14631947875022888
1729115009496800500,21.574800537109375,0.007040977478027344,0.47756654024124146,-0.14170022308826447
1729115009534735000,21.612735107421877,0.0029087066650390625,0.3714277744293213,-0.061313092708587646
1729115009572669700,21.650669677734374,0.0031032562255859375,0.2767065167427063,-0.09247274696826935
1729115009610604300,21.688604248046875,-0.01230621337890625,0.21632806956768036,-0.08125205338001251
1729115009648539000,21.726538818359376,0.0062389373779296875,0.14675013720989227,-0.07015904784202576
1729115009686473500,21.764473388671874,-0.0009698867797851562,0.11349904537200928,-0.06160973012447357
1729115009724408000,21.802407958984375,0.00353240966796875,0.09464927017688751,-0.04661823809146881
1729115009762342700,21.8403427734375,0.0031480789184570312,0.0905206948518753,-0.04815235733985901
1729115009800277200,21.87827734375,-0.0009584426879882812,0.08332335948944092,-0.029841050505638123
1729115009838211800,21.9162119140625,-0.00374603271484375,0.06321346759796143,-0.031048551201820374
1729115009876146400,21.954146484375,-0.0033397674560546875,0.06499063223600388,-0.029656440019607544
1729115009914081000,21.9920810546875,0.0005321502685546875,0.055912844836711884,-0.05474512279033661
1729115009952015600,22.030015625,-0.028929710388183594,0.07451778650283813,-0.02543872594833374
1729115009989950200,22.0679501953125,0.00496673583984375,0.041701026260852814,-0.029081568121910095
1729115010027884800,22.105884765625,0.011086463928222656,0.025858335196971893,-0.07223823666572571
1729115010065819400,22.1438193359375,-0.060108184814453125,-0.06174066662788391,-0.3235136866569519
1729115010103754000,22.18175390625,0.12163352966308594,0.05809212476015091,-0.1334386169910431
1729115010141688600,22.2196884765625,-0.012978553771972656,-0.0661088302731514,-0.16752079129219055
1729115010179623200,22.257623046875,-0.10739517211914062,0.11622743308544159,-0.7209428548812866
1729115010217557800,22.295557861328124,-0.08760738372802734,0.13270294666290283,-1.0382946729660034
1729115010255492400,22.333492431640625,0.9531631469726562,-0.3415488600730896,1.6477278470993042
1729115010293427000,22.371427001953126,-0.17171287536621094,-0.3609778881072998,0.452514111995697
1729115010331361500,22.409361572265624,0.25669288635253906,-0.15765655040740967,0.7613035440444946
1729115010369296100,22.447296142578125,-0.21364498138427734,-0.4615258276462555,-0.9204558730125427
1729115010407230700,22.485230712890626,0.028960227966308594,-0.37264907360076904,-0.9213336110115051
1729115010445165300,22.523165283203124,-0.05039501190185547,-0.425096720457077,-0.5511134266853333
1729115010483100000,22.561099853515625,0.01639842987060547,-0.8120670318603516,-0.7703278064727783
1729115010521034500,22.599034423828126,0.16412830352783203,-1.011121153831482,-0.5144554376602173
1729115010558969000,22.636968994140624,-0.015581130981445312,-1.0142982006072998,-0.30986231565475464
1729115010596903700,22.674903564453125,-0.0494232177734375,-1.4281771183013916,0.1217418909072876
1729115010634838300,22.71283837890625,0.056883811950683594,-1.7070366144180298,0.5109224319458008
1729115010672772900,22.75077294921875,-0.01453399658203125,-1.8798972368240356,0.05906084179878235
1729115010710707500,22.78870751953125,-0.23477458953857422,-1.5205984115600586,0.4372413158416748
1729115010748642000,22.82664208984375,0.3349609375,-1.9604363441467285,0.7414902448654175
1729115010786576600,22.86457666015625,0.1863393783569336,-1.5702731609344482,0.9543871879577637
1729115010824511200,22.90251123046875,-0.42995262145996094,-1.385056734085083,0.9553674459457397
1729115010862445800,22.94044580078125,0.8216562271118164,-2.1103711128234863,1.1144907474517822
1729115010900380400,22.97838037109375,0.09378242492675781,-0.9849582314491272,0.9947714805603027
1729115010938315000,23.01631494140625,-0.4612607955932617,-1.1367652416229248,0.46056339144706726
1729115010976249600,23.05424951171875,0.8379640579223633,-1.6446583271026611,0.38176900148391724
1729115011014184200,23.09218408203125,-0.3362159729003906,-1.1836323738098145,0.4974973201751709
1729115011052118800,23.130118896484376,0.4080018997192383,-1.475791335105896,0.8797078132629395
1729115011090053400,23.168053466796874,0.058234214782714844,-1.4482190608978271,1.076144814491272
1729115011127988000,23.205988037109375,0.16780471801757812,-0.9453135132789612,0.9486007690429688
1729115011165922600,23.243922607421876,0.18365478515625,-1.03728449344635,0.917046844959259
1729115011203857200,23.281857177734373,0.4143180847167969,-1.4997360706329346,0.47296977043151855
1729115011241791700,23.319791748046875,-0.12782955169677734,-1.216973900794983,0.250960111618042
1729115011279726300,23.357726318359376,0.37859249114990234,-1.149531602859497,0.43317458033561707
1729115011317661000,23.395660888671873,0.207000732421875,-0.9824168682098389,0.6252724528312683
1729115011355595500,23.433595458984374,1.736724853515625,-1.2921158075332642,1.6938509941101074
1729115011393530000,23.471530029296876,0.2352313995361328,-1.0577996969223022,0.7621462345123291
1729115011431464700,23.509464599609377,0.3914041519165039,-0.672781229019165,0.6654359102249146
1729115011469399300,23.5473994140625,-0.819732666015625,-0.06499406695365906,0.5777445435523987
1729115011507334000,23.585333984375,1.0461034774780273,0.05593213438987732,0.3932701051235199
1729115011545268500,23.6232685546875,-0.4202852249145508,0.9209481477737427,2.433523178100586
1729115011583203000,23.661203125,0.4302253723144531,1.6645740270614624,3.22475004196167
1729115011621137700,23.6991376953125,-0.5675773620605469,2.0897884368896484,2.408989191055298
1729115011659072300,23.737072265625,0.32945919036865234,1.8616619110107422,1.1657594442367554
1729115011697006800,23.7750068359375,0.09249687194824219,1.7225892543792725,-0.1473504900932312
1729115011734941400,23.81294140625,-0.43853092193603516,1.2916011810302734,-0.6067549586296082
1729115011772876000,23.8508759765625,0.11719036102294922,0.8109493255615234,-0.2932083010673523
1729115011810810600,23.888810546875,-0.12205219268798828,0.5295462608337402,-0.10160346329212189
1729115011848745200,23.9267451171875,0.2073535919189453,0.11377475410699844,-0.2883775234222412
1729115011886679800,23.9646796875,-0.02477741241455078,-0.09290651977062225,-0.20287509262561798
1729115011924614400,24.002614501953126,0.08474445343017578,-0.1951930969953537,-0.260027676820755
1729115011962549000,24.040549072265627,-0.030404090881347656,-0.10134002566337585,-0.25417405366897583
1729115012000483600,24.078483642578124,0.050624847412109375,0.020335465669631958,-0.2151690423488617
1729115012038418200,24.116418212890625,-0.014509201049804688,-0.035966455936431885,-0.09966324269771576
1729115012076352800,24.154352783203127,0.05451679229736328,-0.11056049168109894,-0.24015642702579498
1729115012114287400,24.192287353515624,0.0020170211791992188,-0.027997702360153198,-0.16183961927890778
1729115012152222000,24.230221923828125,0.04061412811279297,-0.0012727975845336914,-0.12307866662740707
1729115012190156500,24.268156494140626,-0.016544342041015625,0.07842741906642914,-0.13336150348186493
1729115012228091100,24.306091064453124,0.0013217926025390625,0.11652188748121262,-0.08769931644201279
1729115012266025700,24.344025634765625,-0.014145851135253906,0.1194784864783287,-0.10643318295478821
1729115012303960300,24.381960205078126,0.008863449096679688,0.13515141606330872,-0.08141841739416122
1729115012341895000,24.41989501953125,0.014818191528320312,0.08730871975421906,-0.08865869790315628
1729115012379829500,24.45782958984375,0.0005331039428710938,0.04186774790287018,-0.07339735329151154
1729115012417764000,24.49576416015625,-0.0005292892456054688,0.0457078218460083,-0.06603443622589111
1729115012455698700,24.53369873046875,0.010584831237792969,0.03893528878688812,-0.04465344548225403
1729115012493633300,24.57163330078125,0.013836860656738281,0.03278264403343201,-0.05192990601062775
1729115012531567900,24.60956787109375,-0.009764671325683594,0.02728329598903656,-0.05391538143157959
1729115012569502500,24.64750244140625,0.00774383544921875,0.03346436470746994,-0.05141247808933258
1729115012607437000,24.68543701171875,-0.002887725830078125,0.027174457907676697,-0.040700748562812805
1729115012645372700,24.72337255859375,0.0042095184326171875,0.026166416704654694,-0.039374157786369324
1729115012683307300,24.761307373046876,0.008405685424804688,0.023783311247825623,-0.02893601357936859
1729115012721242000,24.7992421875,-0.0014181137084960938,0.026055656373500824,-0.02324625849723816
1729115012759176400,24.837176513671874,-0.0040283203125,0.02559356391429901,-0.0243556946516037
1729115012797111000,24.875111083984375,0.0094757080078125,0.02122483402490616,-0.014514133334159851
1729115012835045600,24.913045654296877,0.00003814697265625,0.01460517942905426,-0.03086492419242859
1729115012872980500,24.95098046875,0.009079933166503906,0.015229418873786926,0.001162707805633545
1729115012910915000,24.9889150390625,-0.007225990295410156,0.017797790467739105,-0.02565014362335205
1729115012948849700,25.026849609375,-0.008955955505371094,0.016573064029216766,-0.010141462087631226
1729115012986784000,25.064783935546874,0.013742446899414062,0.0005307048559188843,-0.008725658059120178
1729115013024718800,25.10271875,-0.007088661193847656,0.006717585027217865,-0.010354310274124146
1729115013062653400,25.1406533203125,0.016287803649902344,0.005808785557746887,-0.018085435032844543
1729115013100588000,25.178588134765626,-0.007704734802246094,-0.004150055348873138,-0.014571517705917358
1729115013138522600,25.216522705078123,-0.00008869171142578125,0.01633947342634201,-0.006270691752433777
1729115013176457200,25.254457275390624,-0.012766838073730469,0.0038379430770874023,0.0017625987529754639
1729115013214391800,25.292391845703126,0.008584976196289062,0.012659065425395966,-0.014188587665557861
1729115013252326400,25.330326416015627,-0.0008802413940429688,0.0003037676215171814,-0.01501302421092987
1729115013290261000,25.368260986328124,-0.012592315673828125,-0.002297013998031616,-0.005055859684944153
1729115013328195600,25.406195556640625,-0.0016851425170898438,0.00042510777711868286,-0.0011756718158721924
1729115013366130200,25.444130126953127,-0.014822006225585938,-0.0020457133650779724,0.0065735578536987305
1729115013404064800,25.482064697265624,0.010143280029296875,-0.002506561577320099,0.0011569559574127197
1729115013441999400,25.519999267578125,-0.006024360656738281,0.004490025341510773,-0.007966578006744385
1729115013479934000,25.557933837890626,-0.0112762451171875,-0.0029594004154205322,-0.007917329668998718
1729115013517868500,25.59586865234375,-0.040459632873535156,0.006075091660022736,-0.0013034045696258545
1729115013555803100,25.63380322265625,0.034729957580566406,0.11227475106716156,-0.015904471278190613
1729115013593737700,25.67173779296875,0.040444374084472656,0.3314343988895416,-0.03660978376865387
1729115013631672300,25.70967236328125,0.027329444885253906,0.6864491105079651,-0.02104036509990692
1729115013669607000,25.74760693359375,0.0018510818481445312,0.9448167085647583,0.0956389456987381
1729115013707541500,25.78554150390625,-0.09542560577392578,1.3252389430999756,-0.18859276175498962
1729115013745476000,25.82347607421875,-0.21446704864501953,1.6680666208267212,-0.06194169819355011
1729115013783410700,25.86141064453125,0.17970752716064453,1.7471253871917725,0.3945338726043701
1729115013821345300,25.89934521484375,0.22344017028808594,1.627021074295044,-0.007319435477256775
1729115013859280000,25.93727978515625,-0.03049945831298828,1.8210138082504272,0.019494980573654175
1729115013897214500,25.97521435546875,-0.09751033782958984,1.5963994264602661,-0.0010056495666503906
1729115013935149000,26.013149169921874,0.4751729965209961,1.2906773090362549,0.12815341353416443
1729115013973083600,26.051083740234375,1.057403564453125,0.8217308521270752,0.4110647141933441
1729115014011018200,26.089018310546876,1.3599023818969727,1.407931923866272,0.17643406987190247
1729115014048952800,26.126952880859374,-2.5510244369506836,1.918006420135498,-0.022596746683120728
1729115014086887400,26.164887451171875,-2.32489013671875,1.7839022874832153,0.6788384318351746
1729115014124822300,26.202822265625,0.4644031524658203,1.244915246963501,0.3281545639038086
1729115014162756600,26.240756591796874,-0.7592973709106445,1.4738245010375977,-0.002509593963623047
1729115014200691200,26.278691162109375,2.5528383255004883,0.920830249786377,1.515029788017273
1729115014238625800,26.316625732421876,0.7277374267578125,0.5576772689819336,-0.5466958284378052
1729115014276560600,26.354560546875,-0.5530452728271484,1.1469013690948486,0.36307865381240845
1729115014314495200,26.3924951171875,4.281269073486328,0.3343876600265503,0.6358009576797485
1729115014352429800,26.430429931640624,-0.59716796875,0.30562442541122437,-0.25831151008605957
1729115014390364400,26.468364501953126,-3.071939468383789,1.410728931427002,-0.35124069452285767
1729115014428299000,26.506299072265627,2.235454559326172,0.035826146602630615,0.07233372330665588
1729115014466233600,26.544233642578124,-2.6120500564575195,1.4577562808990479,0.49624231457710266
1729115014504168200,26.582168212890625,-1.396078109741211,0.4675806760787964,-0.8720805048942566
1729115014542102800,26.620102783203127,1.350900650024414,-0.34857332706451416,-0.09635946899652481
1729115014580037400,26.658037353515624,-4.806154251098633,0.26124846935272217,0.4202955663204193
1729115014617972000,26.695971923828125,-0.4588785171508789,-0.27197402715682983,-0.6923543214797974
1729115014655906600,26.733906494140626,1.9272880554199219,-0.5624783635139465,0.3067868947982788
1729115014693841200,26.771841064453124,-1.313176155090332,-0.4052814245223999,0.08508317172527313
1729115014731775700,26.809775634765625,1.1897859573364258,-1.6042332649230957,-0.9422847628593445
1729115014769710300,26.84771044921875,-2.543311595916748,-0.6775924563407898,-0.634175717830658
1729115014807645000,26.88564501953125,1.0424137115478516,0.018239140510559082,0.954735279083252
1729115014845579500,26.92357958984375,-0.44752025604248047,-1.1147642135620117,-0.7277448773384094
1729115014883514000,26.96151416015625,-0.04840278625488281,-1.338563323020935,-1.1854677200317383
1729115014921448700,26.99944873046875,-0.38545989990234375,-0.7402511835098267,-0.6644819974899292
1729115014959383300,27.03738330078125,-3.3004870414733887,-1.3193727731704712,-1.8581959009170532
1729115014997318000,27.07531787109375,2.1467905044555664,-1.1915339231491089,-1.2167532444000244
1729115015035252500,27.11325244140625,0.32096099853515625,-0.3073068857192993,-0.618049144744873
1729115015073187000,27.15118701171875,-2.218118190765381,-0.8940969109535217,-2.0843281745910645
1729115015111121700,27.18912158203125,1.9849567413330078,-1.4599967002868652,-0.4161306619644165
1729115015149056300,27.22705615234375,-0.286041259765625,-0.7953077554702759,-2.105543613433838
1729115015186990800,27.264990966796876,0.6294946670532227,-0.23402369022369385,-2.7273261547088623
1729115015224925700,27.30292578125,-5.71226167678833,-0.08425086736679077,-2.542637825012207
1729115015262860300,27.3408603515625,-0.16082286834716797,-2.2379984855651855,-0.5693768858909607
1729115015300794600,27.378794677734376,-0.455230712890625,-1.2321735620498657,-2.0840916633605957
1729115015338729500,27.4167294921875,-1.606618881225586,0.6537792086601257,-1.303638219833374
1729115015376664000,27.4546640625,1.6092195510864258,-1.847625970840454,-0.8166698217391968
1729115015414598700,27.4925986328125,-0.1700572967529297,-1.7551538944244385,-0.37411534786224365
1729115015452533200,27.530533203125,-0.8791189193725586,-1.3222508430480957,-0.7370187044143677
1729115015490467800,27.5684677734375,0.49794960021972656,-1.3170483112335205,-1.2496731281280518
1729115015528402400,27.60640234375,-1.564535140991211,-0.7098929286003113,-1.1977460384368896
1729115015566337000,27.6443369140625,0.4515810012817383,-1.728212594985962,-0.19433686137199402
1729115015604271600,27.682271728515627,0.3977518081665039,-0.19972610473632812,-1.5997669696807861
1729115015642206200,27.720206298828124,-2.1925082206726074,-1.0999813079833984,-2.0787734985351562
1729115015680140800,27.758140869140625,3.1235227584838867,-1.0439059734344482,-1.3363370895385742
1729115015718075400,27.796075439453126,-0.2236948013305664,0.8501086235046387,-2.038093328475952
1729115015756010000,27.834010009765624,-1.6104354858398438,0.8357706665992737,-2.2089767456054688
1729115015793944600,27.871944580078125,-0.7766590118408203,-0.9161068797111511,-1.267159104347229
1729115015831879200,27.909879150390626,-2.7626967430114746,0.21728628873825073,-1.3486835956573486
1729115015869813800,27.947813720703124,0.5097675323486328,-0.5683964490890503,-1.880336880683899
1729115015907748400,27.985748291015625,1.0207853317260742,-0.5549832582473755,-1.5849577188491821
1729115015945683000,28.023682861328126,-1.8590946197509766,1.025571584701538,-1.2290611267089844
1729115015983617500,28.061617431640624,2.4674625396728516,-1.258033037185669,0.11567606031894684
1729115016021552000,28.09955224609375,-0.3260784149169922,-1.0614333152770996,0.5702074766159058
1729115016059486700,28.13748681640625,-4.537098407745361,-0.46901237964630127,0.019025564193725586
1729115016097421600,28.175421630859375,3.013580322265625,-1.3421199321746826,0.47477877140045166
1729115016135356200,28.213356201171877,0.8661813735961914,0.2491893172264099,0.44108933210372925
1729115016173290800,28.251290771484374,-4.8959760665893555,0.07589608430862427,-0.016291886568069458
1729115016211225300,28.289225341796875,1.3133831024169922,-1.747434139251709,0.7139371037483215
1729115016249160000,28.327159912109376,-1.6017227172851562,0.24837154150009155,-0.13686728477478027
1729115016287094500,28.365094482421874,1.2242794036865234,-0.1498565673828125,0.3250577449798584
1729115016325029000,28.403029052734375,0.6162891387939453,-0.39273980259895325,0.727004885673523
1729115016362963700,28.440963623046876,-1.1381444931030273,-0.07728385925292969,0.4345802068710327
1729115016400898300,28.478898193359374,0.9314708709716797,-1.4630038738250732,1.16301429271698
1729115016438833000,28.5168330078125,-3.4446210861206055,-0.148878812789917,0.813796877861023
1729115016476767500,28.554767578125,-3.6170225143432617,-0.3341762125492096,0.7059043645858765
1729115016514702000,28.5927021484375,1.6577882766723633,-1.611343264579773,1.9253407716751099
1729115016552636700,28.63063671875,-0.06738853454589844,-0.0415920615196228,1.630104660987854
1729115016590571300,28.6685712890625,-2.4307785034179688,-0.31691962480545044,0.8543630242347717
1729115016628505900,28.706505859375,1.5255517959594727,-1.4237679243087769,1.3617265224456787
1729115016666440400,28.7444404296875,-3.690095901489258,-0.9440594911575317,2.789625644683838
1729115016704375000,28.782375,2.02254581451416,-1.4364824295043945,2.80523681640625
1729115016742309600,28.8203095703125,-0.9937334060668945,-1.2126011848449707,2.064481019973755
1729115016780244200,28.858244140625,3.4687318801879883,-1.4640015363693237,2.5106663703918457
1729115016818178800,28.8961787109375,2.6661767959594727,-1.7071969509124756,2.8271424770355225
1729115016856113700,28.93411376953125,-2.614819049835205,-0.36605459451675415,2.2690372467041016
1729115016894048300,28.97204833984375,3.244948387145996,-0.45668888092041016,2.4702980518341064
1729115016931982800,29.00998291015625,1.9179954528808594,-1.0878854990005493,1.8848803043365479
1729115016969917400,29.04791748046875,0.40805912017822266,0.5141153335571289,1.4055136442184448
1729115017007852000,29.08585205078125,-0.5133876800537109,-0.8210659623146057,7.752197265625
1729115017045786600,29.12378662109375,2.050307273864746,-2.4571261405944824,5.867148399353027
1729115017083721200,29.16172119140625,8.359707832336426,-1.3243303298950195,4.018003463745117
1729115017121655800,29.19965576171875,0.3627185821533203,-0.3989880383014679,4.07570743560791
1729115017159590400,29.23759033203125,-2.473207473754883,-0.034588754177093506,1.490524411201477
1729115017197525000,29.27552490234375,2.0069055557250977,-0.22414083778858185,3.260981559753418
1729115017235459600,29.31345947265625,4.998049736022949,0.12108281254768372,2.8993723392486572
1729115017273394200,29.351394287109375,-4.027775287628174,-0.22554494440555573,1.822227120399475
1729115017311328800,29.389328857421877,0.9107542037963867,0.02653142809867859,2.66385555267334
1729115017349263400,29.427263427734374,0.012393951416015625,0.037715911865234375,2.9083380699157715
1729115017387198000,29.465197998046875,1.5047178268432617,0.28910189867019653,2.450927257537842
1729115017425132500,29.503132568359376,-1.1457853317260742,-0.18710827827453613,-0.5597407221794128
1729115017463067100,29.541067138671874,2.048898696899414,-1.2222094535827637,-0.3557843267917633
1729115017501001700,29.579001708984375,-2.0256290435791016,-0.9124346971511841,-0.09213489294052124
1729115017538936300,29.616936279296876,-2.2751760482788086,-0.763574481010437,0.2458857297897339
1729115017576871200,29.65487109375,1.2577104568481445,-1.474379301071167,0.4522884488105774
1729115017614805800,29.6928056640625,1.0243139266967773,-2.31022047996521,0.368999719619751
1729115017652740400,29.730740234375,-0.49506568908691406,-1.6465251445770264,1.0028053522109985
1729115017690675000,29.768675048828126,-0.35923290252685547,-0.7197773456573486,-1.7535842657089233
1729115017728609500,29.806609619140627,1.6856470108032227,-2.69089937210083,-3.546261787414551
1729115017766544100,29.844544189453124,-1.7407760620117188,-2.22092604637146,-1.3320584297180176
1729115017804478700,29.882478759765625,1.1035165786743164,-1.4830212593078613,0.5730870962142944
1729115017842413300,29.920413330078127,-1.1068344116210938,-1.5951039791107178,-0.7859969735145569
1729115017880348000,29.958347900390624,0.655003547668457,-1.8913230895996094,-0.5514082908630371
1729115017918282500,29.996282470703125,-1.036555290222168,-1.7136688232421875,-0.0706072747707367
1729115017956217000,30.034217041015626,0.5934200286865234,-2.1810669898986816,-0.7758970856666565
1729115017994151700,30.072151611328124,-0.03160858154296875,-1.7923060655593872,-0.6395183205604553
1729115018032086300,30.110086181640625,-1.1061830520629883,-1.6745777130126953,-1.0237584114074707
1729115018070020900,30.148020751953126,1.0428085327148438,-2.1694865226745605,0.36131536960601807
1729115018107955500,30.18595556640625,-0.3371438980102539,-1.6513713598251343,0.40219247341156006
1729115018145890000,30.22389013671875,0.11786079406738281,-1.536208152770996,-0.4002997577190399
1729115018183824600,30.26182470703125,-0.11036205291748047,-1.7512483596801758,-0.7411025762557983
1729115018221759200,30.29975927734375,0.43585968017578125,-1.833937168121338,-0.10158011317253113
1729115018259694000,30.337694091796877,-0.0911417007446289,-1.811942219734192,-0.266874223947525
1729115018297628700,30.375628662109374,-0.10201549530029297,-1.918013572692871,-0.4066397547721863
1729115018335563300,30.413563232421875,-0.013448715209960938,-1.5771182775497437,-0.17660534381866455
1729115018373497900,30.451497802734377,0.06946372985839844,-1.1914767026901245,-0.07036194205284119
1729115018411432400,30.489432373046874,-0.056952476501464844,-0.7115761637687683,-0.36891862750053406
1729115018449367000,30.527366943359375,0.04163837432861328,-0.2428377866744995,-0.17980167269706726
1729115018487301600,30.565301513671876,-0.032474517822265625,0.1753176748752594,-0.23724138736724854
1729115018525236200,30.603236328125,-0.005972862243652344,0.47567570209503174,-0.23391243815422058
1729115018563170800,30.6411708984375,-0.015382766723632812,0.7522648572921753,-0.2402189075946808
1729115018601105400,30.67910546875,0.003956794738769531,0.7740492820739746,-0.2732910215854645
1729115018639040000,30.7170400390625,-0.0128631591796875,0.6724488139152527,-0.2897591292858124
1729115018676974600,30.754974609375,0.00152587890625,0.7779895663261414,-0.09155994653701782
1729115018714909200,30.7929091796875,-0.014951705932617188,0.6965429782867432,-0.3212357759475708
1729115018752843800,30.83084375,0.013318061828613281,0.5146387815475464,-0.13495492935180664
1729115018790778600,30.868778564453127,-0.004693031311035156,0.3845823109149933,-0.16588237881660461
1729115018828713000,30.906712890625,0.006745338439941406,0.2530353367328644,-0.1320658028125763
1729115018866647600,30.9446474609375,-0.013447761535644531,0.16030475497245789,-0.12229873239994049
1729115018904582400,30.98258251953125,0.005715370178222656,0.10136750340461731,-0.1064879447221756
1729115018942517000,31.02051708984375,-0.01914691925048828,0.062369972467422485,-0.08779401332139969
1729115018980451600,31.05845166015625,0.011689186096191406,0.05205687880516052,-0.08842077106237411
1729115019018386200,31.09638623046875,-0.016202926635742188,0.053289949893951416,-0.06511972844600677
1729115019056320800,31.13432080078125,0.012692451477050781,0.07881532609462738,-0.07072818279266357
1729115019094255400,31.17225537109375,-0.010786056518554688,0.12526318430900574,-0.06781069934368134
1729115019132190000,31.21018994140625,0.007841110229492188,0.1599106788635254,-0.06548590958118439
1729115019170124500,31.24812451171875,-0.001171112060546875,0.16621382534503937,-0.0617845356464386
1729115019208059100,31.28605908203125,-0.0007915496826171875,0.14945688843727112,-0.059713270515203476
1729115019245993700,31.32399365234375,-0.005097389221191406,0.11135667562484741,-0.02924494817852974
1729115019283928300,31.36192822265625,0.004254341125488281,0.04659557342529297,-0.04351874440908432
1729115019321863000,31.39986279296875,-0.0013551712036132812,0.03310513496398926,-0.02608533948659897
1729115019359797500,31.437797607421874,-0.0053539276123046875,0.005227729678153992,-0.027095384895801544
1729115019397732000,31.475732177734375,-0.0070362091064453125,0.013414815068244934,-0.029139772057533264
1729115019435667000,31.5136669921875,0.013447761535644531,0.029118672013282776,-0.012486912310123444
1729115019473601500,31.5516015625,-0.011876106262207031,0.03211033344268799,-0.02915617823600769
1729115019511536000,31.5895361328125,0.013024330139160156,0.03988921642303467,-0.011343255639076233
1729115019549470700,31.627470703125,-0.011997222900390625,0.03426623344421387,-0.009798265993595123
1729115019587405300,31.6654052734375,0.010905265808105469,0.01731698215007782,-0.02653203159570694
1729115019625340000,31.70333984375,-0.0055980682373046875,0.01488599181175232,-0.02701234072446823
1729115019663274500,31.7412744140625,0.005810737609863281,0.02213791012763977,-0.0005334541201591492
1729115019701209000,31.779208984375,0.0034246444702148438,0.01554243266582489,-0.015370972454547882
1729115019739143700,31.817143798828123,0.0035572052001953125,0.013808473944664001,0.006701841950416565
1729115019777078300,31.855078369140625,-0.0005922317504882812,0.023450776934623718,-0.007083714008331299
1729115019815012900,31.893012939453126,0.02170562744140625,0.029379069805145264,0.07731974124908447
1729115019852947500,31.930947509765623,0.11118888854980469,0.13954246044158936,0.1942870169878006
1729115019890882000,31.968882080078124,-0.4172697067260742,-0.018856078386306763,0.155037522315979
1729115019928816600,32.006816650390626,0.2313995361328125,0.018214911222457886,0.5203301310539246
1729115019966751500,32.04475146484375,-0.1532888412475586,-0.0361272394657135,0.6148170828819275
1729115020004685800,32.08268579101563,0.0771484375,-0.061538755893707275,0.7174302935600281
1729115020042620700,32.12062060546875,-0.1609029769897461,-0.06269334256649017,0.612129271030426
1729115020080555300,32.15855517578125,0.01081085205078125,-0.16970135271549225,0.5137014985084534
1729115020118489900,32.19648974609375,-0.017179489135742188,-0.3324905037879944,0.6649074554443359
1729115020156424400,32.23442456054688,0.1600332260131836,-0.4237232506275177,-0.08699136972427368
1729115020194359000,32.27235913085938,0.10538387298583984,-0.37219101190567017,-0.16803935170173645
1729115020232293600,32.31029370117187,0.05385017395019531,-0.5500611662864685,-0.7024507522583008
1729115020270228200,32.34822827148437,0.7086391448974609,-0.6950308084487915,-0.5548756718635559
1729115020308162800,32.386162841796875,-0.07945442199707031,-0.16167983412742615,-0.3524695038795471
1729115020346097400,32.424097412109376,0.41303253173828125,-0.7109818458557129,-0.957667350769043
1729115020384032000,32.46203198242188,0.05610084533691406,-0.36814582347869873,-0.4431135058403015
1729115020421966600,32.49996655273438,-0.11879825592041016,-0.39826521277427673,-0.772017240524292
1729115020459901200,32.53790112304687,-0.10247993469238281,-0.26856595277786255,-0.1503848135471344
1729115020497835800,32.57583569335937,0.018215179443359375,-0.3081878125667572,-0.4152941107749939
1729115020535770400,32.613770263671874,-0.019449234008789062,-0.21426662802696228,-0.10109695792198181
1729115020573705200,32.65170532226563,0.015882492065429688,-0.10105039179325104,0.2707260847091675
1729115020611639800,32.68963989257813,0.15268230438232422,-0.4961358308792114,-0.41716453433036804
1729115020649574400,32.72757446289062,-0.15188121795654297,-0.26329463720321655,-0.2990354001522064
1729115020687509000,32.765509033203124,0.033939361572265625,-0.3437013626098633,-0.3395566940307617
1729115020725443600,32.803443603515625,0.038055419921875,-0.2050240933895111,0.10639804601669312
1729115020763378200,32.841378173828126,-0.12494468688964844,-0.2145167589187622,-0.31258276104927063
1729115020801312800,32.87931274414063,0.09949302673339844,-0.37473249435424805,-0.12587180733680725
1729115020839247400,32.91724731445313,0.06186389923095703,-0.18261118233203888,0.11955729126930237
1729115020877182000,32.95518188476562,-0.1335887908935547,-0.2734176218509674,-0.39125552773475647
1729115020915116500,32.99311645507812,-0.00835418701171875,-0.06463655084371567,0.03214743733406067
1729115020953051100,33.031051025390624,-0.2022876739501953,-0.15041011571884155,-0.3711780607700348
1729115020990985700,33.06898583984375,0.13054275512695312,-0.09415121376514435,0.10295084118843079
1729115021028920300,33.10692041015625,-0.15310001373291016,-0.16094458103179932,-0.296013206243515
1729115021066855000,33.14485498046875,0.06268310546875,-0.24651768803596497,-0.6731523871421814
1729115021104789800,33.182789794921874,-0.15218448638916016,-0.08140125870704651,-1.1105653047561646
1729115021142724400,33.220724365234375,-0.41120243072509766,0.060091495513916016,-1.0986888408660889
1729115021180659000,33.258658935546876,0.11851787567138672,0.024178743362426758,-1.4316530227661133
1729115021218593500,33.29659350585938,-0.09264087677001953,0.10812265425920486,-0.9816482067108154
1729115021256528100,33.33452807617188,0.24714374542236328,0.10964711755514145,-0.8604812026023865
1729115021294462700,33.37246264648437,0.005573272705078125,0.20517119765281677,-0.5094404220581055
1729115021332397300,33.41039721679687,-0.08001041412353516,0.3434222936630249,0.34096771478652954
1729115021370332000,33.448331787109375,0.07445049285888672,0.2850967049598694,-0.15699930489063263
1729115021408266500,33.4862666015625,-0.042354583740234375,0.26210126280784607,-0.05622079595923424
1729115021446201000,33.524201171875,-0.011649131774902344,0.2508711516857147,-0.04064299538731575
1729115021484135700,33.5621357421875,-0.004319190979003906,0.22146126627922058,-0.13305024802684784
1729115021522070300,33.6000703125,0.024791717529296875,0.21064293384552002,-0.011564657092094421
1729115021560004900,33.6380048828125,0.0066623687744140625,0.19197465479373932,-0.10980665683746338
1729115021597939700,33.675939697265626,0.010591506958007812,0.16726045310497284,0.005831602960824966
1729115021635874300,33.71387426757813,0.00040340423583984375,0.14236781001091003,-0.08634982258081436
1729115021673809000,33.75180883789063,0.011288642883300781,0.12039867043495178,-0.014012210071086884
1729115021711743500,33.78974340820312,0.005423545837402344,0.10282835364341736,-0.06850123405456543
1729115021749678000,33.827677978515624,0.007096290588378906,0.10637705028057098,-0.0179215669631958
1729115021787612700,33.86561279296875,0.003943443298339844,0.0810091644525528,-0.043700844049453735
1729115021825547300,33.90354736328125,0.010172843933105469,0.06981177628040314,-0.01931549608707428
1729115021863481900,33.94148193359375,-0.004117012023925781,0.05706236511468887,-0.02886437624692917
1729115021901416400,33.97941650390625,-0.0039234161376953125,0.06415578722953796,-0.01416003704071045
1729115021939351000,34.01735107421875,0.0001430511474609375,0.05490545928478241,-0.022005833685398102
1729115021977285600,34.05528564453125,-0.00678253173828125,0.06926430016756058,0.000748462975025177
1729115022015220200,34.09322021484375,0.02359294891357422,0.04472426325082779,-0.016598336398601532
1729115022053154800,34.13115478515625,-0.0049591064453125,0.04375047981739044,-0.011094629764556885
1729115022091089400,34.16908935546875,0.009265899658203125,0.04131042957305908,-0.019147373735904694
1729115022129024000,34.20702392578125,-0.016607284545898438,0.03894674777984619,-0.006100066006183624
1729115022166958800,34.244958740234374,0.0047817230224609375,0.028401032090187073,-0.007506042718887329
1729115022204893400,34.2828935546875,-0.0002574920654296875,0.02539864182472229,-0.011424452066421509
1729115022242828000,34.320828125,0.0016565322875976562,0.027135580778121948,-0.009785205125808716
1729115022280762600,34.3587626953125,-0.005057334899902344,0.013695821166038513,-0.008802138268947601
1729115022318697200,34.396697265625,-0.004761695861816406,0.023337364196777344,-0.012219496071338654
1729115022356631800,34.4346318359375,0.0063037872314453125,0.0209064781665802,0.0003494173288345337
1729115022394566400,34.47256640625,-0.010456085205078125,0.017128512263298035,-0.012911275029182434
1729115022432501000,34.5105009765625,-0.007694244384765625,0.029646649956703186,-0.0009147673845291138
1729115022470435600,34.548435546875,0.005696296691894531,0.007016867399215698,-0.011447764933109283
1729115022508370200,34.5863701171875,-0.0035886764526367188,0.012606427073478699,-0.0038612857460975647
1729115022546304800,34.6243046875,-0.0032014846801757812,0.0019073933362960815,-0.012922100722789764
1729115022584239600,34.662239501953124,-0.009511947631835938,0.007821038365364075,-0.010224372148513794
1729115022622174000,34.700174072265625,0.00420379638671875,0.00490860641002655,-0.005447022616863251
1729115022660108800,34.73810888671875,0.0013599395751953125,0.008825510740280151,-0.009812571108341217
1729115022698043400,34.77604345703125,0.005105018615722656,-0.002504691481590271,-0.00156421959400177
1729115022735978000,34.81397802734375,0.009703636169433594,-0.0005158483982086182,-0.003962509334087372
1729115022773912600,34.85191259765625,-0.00013828277587890625,-0.003280043601989746,0.003800421953201294
1729115022811847200,34.88984716796875,0.014822006225585938,0.0006349384784698486,-0.0033417269587516785
1729115022849781800,34.92778173828125,-0.004490852355957031,0.0024089664220809937,0.0010845363140106201
1729115022887716400,34.96571630859375,0.0032796859741210938,0.0035984814167022705,-0.005870811641216278
1729115022925651000,35.00365087890625,-0.0014715194702148438,-0.004260584712028503,-0.026671484112739563
1729115022963585500,35.04158544921875,-0.0039539337158203125,0.0026740729808807373,0.012834757566452026
1729115023001520000,35.07952001953125,-0.0015172958374023438,-0.0023202896118164062,-0.007951535284519196
1729115023039454700,35.117454833984375,-0.0031156539916992188,-0.00024305284023284912,0.005916625261306763
1729115023077389300,35.155389404296876,0.0035009384155273438,0.008895441889762878,-0.0008010715246200562
1729115023115324000,35.19332397460938,-0.006424903869628906,0.01089295744895935,-0.0005570277571678162
1729115023153258800,35.2312587890625,-0.0012073516845703125,0.013300150632858276,0.009831883013248444
1729115023191193300,35.269193359375,0.0008020401000976562,0.0015902072191238403,0.0071902796626091
1729115023229128000,35.3071279296875,-0.0034313201904296875,-0.005303025245666504,-0.009115606546401978
1729115023267062500,35.3450625,-0.0029354095458984375,-0.0006437152624130249,-0.004710949957370758
1729115023304997000,35.3829970703125,0.02665424346923828,-0.04215940833091736,-0.2223467379808426
1729115023342931700,35.420931640625,-0.05472278594970703,0.08090773224830627,0.20805642008781433
1729115023380866300,35.4588662109375,-0.18258953094482422,0.035014450550079346,0.11731687188148499
1729115023418801000,35.49680078125,-0.06461620330810547,0.06050784885883331,-0.052789025008678436
1729115023456735500,35.534735595703125,-0.03273200988769531,0.4555091857910156,-0.022214464843273163
1729115023494670000,35.57267016601563,-0.03191184997558594,0.720528244972229,-0.016361407935619354
1729115023532604700,35.61060473632813,-0.14934730529785156,1.1149601936340332,0.10923504084348679
1729115023570539300,35.64853930664062,-0.24651050567626953,1.4133219718933105,0.08654771745204926
1729115023608473900,35.68647387695312,0.26862525939941406,1.379763126373291,0.09360691905021667
1729115023646408700,35.72440869140625,-0.1428089141845703,1.3613814115524292,0.06306464970111847
1729115023684343300,35.76234326171875,0.1813373565673828,1.3731834888458252,-0.3727339804172516
1729115023722278000,35.80027783203125,-0.31347179412841797,1.2337504625320435,-0.3464033901691437
1729115023760212500,35.83821240234375,1.317861557006836,1.2093600034713745,0.9021545052528381
1729115023798147000,35.87614697265625,-0.06578350067138672,0.7633089423179626,0.7355054616928101
1729115023836081700,35.91408154296875,1.9570255279541016,1.1720561981201172,0.09497690200805664
1729115023874016300,35.952016357421876,0.027143478393554688,1.5342204570770264,-0.09081625938415527
1729115023911950800,35.98995092773438,-0.1512603759765625,1.3928375244140625,0.12678472697734833
1729115023949885400,36.02788549804688,0.5118618011474609,1.0099527835845947,-0.02763943374156952
1729115023987820000,36.06582006835937,0.2761392593383789,1.2660784721374512,0.29009902477264404
1729115024025754600,36.10375463867187,0.6203489303588867,1.2475905418395996,-0.07318101823329926
1729115024063689200,36.141689208984374,-2.0204877853393555,1.5732982158660889,0.44136902689933777
1729115024101624000,36.1796240234375,1.147263526916504,1.6996190547943115,-0.2653949558734894
1729115024139558700,36.21755859375,-2.795978546142578,1.835680365562439,0.1226995661854744
1729115024177493200,36.2554931640625,4.178196907043457,0.4692097306251526,0.7124062776565552
1729115024215427800,36.293427734375,2.3405704498291016,0.592225193977356,0.8537903428077698
1729115024253362400,36.331362548828125,-1.2590398788452148,2.251404285430908,-0.2446281909942627
1729115024291297000,36.369297119140626,0.6965551376342773,1.0092253684997559,0.3016241490840912
1729115024329231600,36.40723168945313,0.1801748275756836,1.1031047105789185,-0.040144845843315125
1729115024367166200,36.44516625976563,0.6680793762207031,0.7150545120239258,1.203520655632019
1729115024405100800,36.48310083007812,0.2460184097290039,0.5502533316612244,-0.2812730669975281
1729115024443035400,36.52103540039062,-1.3282861709594727,0.8622055649757385,-0.4176228642463684
1729115024480970000,36.558969970703124,0.796931266784668,-0.5967553853988647,1.9773163795471191
1729115024518904600,36.596904541015626,-3.0429296493530273,0.2925068736076355,-0.8050378561019897
1729115024556839200,36.63483911132813,-1.9386463165283203,0.5826941132545471,-0.8438960313796997
1729115024594774000,36.67277392578125,-1.6269197463989258,-0.7227978110313416,1.1220004558563232
1729115024632708600,36.71070849609375,1.5244340896606445,-0.8699851036071777,1.2846107482910156
1729115024670643200,36.748643310546875,-3.028496742248535,-0.6324577331542969,1.3719350099563599
1729115024708577800,36.786577880859376,0.3917417526245117,-1.485139012336731,2.0312094688415527
1729115024746512400,36.82451245117188,-3.6562461853027344,-1.2630939483642578,2.43813419342041
1729115024784447000,36.86244702148438,2.9222230911254883,-1.6824727058410645,3.5747268199920654
1729115024822381600,36.90038159179687,-0.9302644729614258,-0.47038722038269043,2.134103298187256
1729115024860316200,36.93831616210937,1.0387811660766602,-1.4522316455841064,2.157320499420166
1729115024898250800,36.976250732421875,2.194835662841797,-0.6279049515724182,2.2112622261047363
1729115024936185300,37.014185302734376,-7.838008880615234,0.6111916303634644,0.7411065697669983
1729115024974120000,37.05211987304688,-2.2168221473693848,-0.16762420535087585,6.279993534088135
1729115025012054500,37.09005444335938,1.405919075012207,-0.9353755712509155,5.911769866943359
1729115025049989400,37.1279892578125,1.3410921096801758,-0.29750970005989075,2.2445406913757324
1729115025087924000,37.165924072265625,0.2535667419433594,-1.586405873298645,2.7726335525512695
1729115025125858600,37.203858642578126,2.278618812561035,-0.21379819512367249,1.4299843311309814
1729115025163793200,37.24179321289063,-3.999466896057129,-0.18895834684371948,-0.1556578278541565
1729115025201727700,37.27972778320313,1.5565671920776367,-1.0628812313079834,0.355525940656662
1729115025239662300,37.31766235351562,1.1532459259033203,0.06812301278114319,0.932899534702301
1729115025277597000,37.355596923828124,-3.024369239807129,0.5722765922546387,1.045143723487854
1729115025315531500,37.393531494140625,3.8181304931640625,-0.4250475764274597,1.3773363828659058
1729115025353466000,37.431466064453126,-1.0952510833740234,-2.101569175720215,-2.2124767303466797
1729115025391400700,37.46940063476563,-0.45243072509765625,-3.5002777576446533,-3.162585973739624
1729115025429335300,37.50733520507813,0.960993766784668,-2.7167117595672607,-2.645432233810425
1729115025467270000,37.54526977539062,0.8730401992797852,-2.697324752807617,-0.3554140329360962
1729115025505204500,37.58320458984375,0.2630023956298828,-2.1332099437713623,-1.1955883502960205
1729115025543139300,37.621139404296876,-2.5241098403930664,-0.9586616158485413,-2.1309545040130615
1729115025581074000,37.65907397460938,-0.4582948684692383,-2.9546992778778076,-1.7698460817337036
1729115025619008500,37.69700854492187,4.4296875,-1.6457961797714233,-1.581721544265747
1729115025656943000,37.73494311523437,-3.861489772796631,-3.0955288410186768,-4.15568208694458
1729115025694877700,37.772877685546874,1.9632844924926758,-1.2190306186676025,-3.302271842956543
1729115025732812300,37.810812255859375,-2.582716464996338,-0.47940969467163086,-4.908314228057861
1729115025770747000,37.848746826171876,0.06569385528564453,-0.767139196395874,-2.2287540435791016
1729115025808681500,37.88668139648438,0.5520668029785156,-0.8663240671157837,-4.053802490234375
1729115025846616000,37.92461596679688,-0.9087972640991211,-0.7716159820556641,-4.231133460998535
1729115025884550700,37.96255053710937,2.511219024658203,-1.9871257543563843,-3.877363681793213
1729115025922485200,38.0004853515625,-1.6364545822143555,-0.3754349946975708,-3.249448537826538
1729115025960419800,38.038419921875,0.9224605560302734,-1.9387381076812744,-2.45310640335083
1729115025998354700,38.07635473632813,-0.022462844848632812,0.8207195401191711,-3.6551456451416016
1729115026036289300,38.11428930664062,-4.9481000900268555,1.0103211402893066,-2.845576763153076
1729115026074223900,38.15222387695312,0.3025398254394531,-0.3197140097618103,-1.104090929031372
1729115026112158500,38.190158447265624,2.242330551147461,-0.387050062417984,-1.1569273471832275
1729115026150093000,38.228093017578125,-3.2552223205566406,1.136826753616333,-1.5293023586273193
1729115026188027600,38.266027587890626,0.9497299194335938,0.6087098121643066,0.7071124315261841
1729115026225962200,38.30396215820313,3.0022010803222656,0.4621821641921997,0.590010941028595
1729115026263896800,38.34189672851563,-4.482472896575928,1.134486436843872,-0.4116482138633728
1729115026301831400,38.37983154296875,3.350179672241211,-0.6445000767707825,-0.7436470985412598
1729115026339766000,38.41776611328125,-1.4272880554199219,-0.4268038272857666,-0.10655075311660767
1729115026377700900,38.45570092773438,-0.8400821685791016,0.4416179060935974,4.501556396484375
1729115026415635200,38.49363525390625,-1.9408693313598633,-0.2936813533306122,1.4863791465759277
1729115026453570000,38.53157006835937,1.3216094970703125,-0.11459779739379883,0.30257341265678406
1729115026491504600,38.56950463867187,-1.7655439376831055,-0.9513543844223022,-0.27324190735816956
1729115026529439200,38.607439208984374,-0.3315391540527344,0.3639800250530243,0.5352104902267456
1729115026567373800,38.645373779296875,-0.48728466033935547,-0.8533720970153809,0.7278330326080322
1729115026605308400,38.683308349609376,1.0908117294311523,-0.6414252519607544,0.1943056285381317
1729115026643243000,38.72124291992188,-4.062784671783447,-1.4068938493728638,-0.15617111325263977
1729115026681177600,38.75917749023437,4.89840030670166,-1.0757155418395996,0.6073749661445618
1729115026719112200,38.7971123046875,-0.7677507400512695,-0.2936650216579437,1.127577543258667
1729115026757046800,38.835046875,0.7055368423461914,0.4436572790145874,1.082599401473999
1729115026794981400,38.8729814453125,0.45014381408691406,-0.16324397921562195,0.2786916494369507
1729115026832916200,38.91091625976563,1.863816261291504,-1.6018744707107544,1.4762954711914062
1729115026870850800,38.94885083007812,-0.6711359024047852,-1.7475402355194092,1.1989943981170654
1729115026908785400,38.98678540039062,0.9226713180541992,-1.5757746696472168,2.3261821269989014
1729115026946720000,39.024719970703124,0.28491687774658203,-0.5852490067481995,2.6135709285736084
1729115026984654600,39.062654541015625,-0.3867053985595703,-1.3069608211517334,2.2886979579925537
1729115027022589200,39.10058911132813,2.326573371887207,-1.738254189491272,3.343289375305176
1729115027060523800,39.13852368164063,-3.2385268211364746,-1.0052680969238281,2.308520555496216
1729115027098458400,39.17645825195312,1.0095396041870117,-1.392883062362671,2.9322099685668945
1729115027136393000,39.21439306640625,0.00490570068359375,-2.275819778442383,2.9714691638946533
1729115027174327600,39.25232763671875,3.916975975036621,-1.1178877353668213,1.8384231328964233
1729115027212262100,39.29026220703125,-3.85040283203125,1.018565058708191,2.387221097946167
1729115027250196700,39.32819677734375,-1.0503158569335938,-0.6249054670333862,9.288570404052734
1729115027288131300,39.36613134765625,-4.002241611480713,0.9460452198982239,6.013770580291748
1729115027326066200,39.40406616210937,-2.3289990425109863,-2.1365280151367188,1.637825608253479
1729115027364000800,39.442000732421874,5.844654083251953,-2.221881866455078,5.450292587280273
1729115027401935400,39.479935302734376,3.3601512908935547,-0.6650431156158447,2.8721697330474854
1729115027439870000,39.51786987304688,-6.767477035522461,1.3240914344787598,1.8746757507324219
1729115027477804500,39.55580444335938,2.582594871520996,-0.06340165436267853,3.7837374210357666
1729115027515739100,39.5937392578125,1.890127182006836,-0.8887291550636292,4.212052822113037
1729115027553673700,39.631673828125,3.125640869140625,0.38265615701675415,1.967551350593567
1729115027591608300,39.6696083984375,-3.4745240211486816,0.942642331123352,2.0924439430236816
1729115027629543000,39.70754296875,2.9459104537963867,0.7074883580207825,2.8644301891326904
1729115027667477500,39.7454775390625,3.2086267471313477,-0.8916142582893372,1.493840217590332
1729115027705412000,39.783412109375,-1.576629638671875,0.552649736404419,-0.4277854561805725
1729115027743346700,39.8213466796875,0.4738903045654297,0.3220668435096741,0.7544872760772705
1729115027781281500,39.859281494140625,3.636852264404297,0.16946998238563538,-0.6348907947540283
1729115027819216100,39.897216064453126,-6.881563186645508,-0.0005259215831756592,-0.8820517063140869
1729115027857150700,39.93515063476563,-0.8501415252685547,-0.3452500104904175,-1.1679661273956299
1729115027895085300,39.97308520507813,3.336270332336426,-0.2399865984916687,-1.5609996318817139
1729115027933020000,40.01102001953125,-6.68078088760376,-1.0219955444335938,-2.9053850173950195
1729115027970954500,40.04895458984375,3.6886301040649414,-0.5147939920425415,-0.9559082984924316
1729115028008889000,40.08688916015625,2.1302080154418945,-1.2567527294158936,-5.142786026000977
1729115028046823700,40.12482373046875,0.9789886474609375,-2.7451841831207275,-2.3305089473724365
1729115028084758300,40.16275830078125,-3.223641872406006,-0.445692241191864,-6.220128536224365
1729115028122692900,40.20069287109375,-1.6900568008422852,-4.018109321594238,-3.983140707015991
1729115028160627500,40.23862744140625,0.5729246139526367,0.6705206632614136,-4.573678016662598
1729115028198562000,40.27656201171875,-0.044526100158691406,-4.622845649719238,-2.8698811531066895
1729115028236497000,40.314496826171876,1.369338035583496,-3.7955594062805176,-1.9221234321594238
1729115028274431500,40.35243139648438,-0.5734233856201172,-1.1261365413665771,-0.49067676067352295
1729115028312366000,40.39036596679688,-4.2429914474487305,1.325812816619873,-2.135863780975342
1729115028350300700,40.42830078125,2.4024181365966797,-1.8546106815338135,0.2612360715866089
1729115028388235300,40.4662353515625,-0.9239435195922852,-1.8805937767028809,-1.065633773803711
1729115028426169900,40.504169921875,0.22240447998046875,-2.7368621826171875,-0.26027143001556396
1729115028464104400,40.5421044921875,0.36675357818603516,-3.4852428436279297,-0.24584805965423584
1729115028502039000,40.5800390625,-0.9101734161376953,-2.7453627586364746,-0.948198676109314
1729115028539973600,40.6179736328125,-0.057808876037597656,-2.654766321182251,-0.9276109933853149
1729115028577908200,40.655908203125,-0.6917495727539062,-2.535472869873047,-1.1779377460479736
1729115028615842800,40.6938427734375,-0.36316871643066406,-2.374323844909668,-1.1859346628189087
1729115028653777400,40.73177734375,-1.1758852005004883,-1.721161961555481,-1.642140507698059
1729115028691712300,40.76971215820313,-0.6921186447143555,-1.302649974822998,-1.3014910221099854
1729115028729646800,40.80764672851563,0.03110790252685547,-1.2648491859436035,-1.5302956104278564
1729115028767581400,40.84558154296875,-1.4183626174926758,-1.508958101272583,-2.2615370750427246
1729115028805516000,40.88351611328125,-2.422269344329834,-3.1052401065826416,-0.6179466843605042
1729115028843450600,40.92145068359375,-2.5636000633239746,2.720552444458008,3.3691484928131104
1729115028881385200,40.95938525390625,8.492544174194336,-0.7391015291213989,6.2339677810668945
1729115028919319800,40.99731982421875,-2.536457061767578,0.7397857904434204,3.241124391555786
1729115028957254400,41.03525439453125,-3.1943769454956055,1.715635061264038,1.0191019773483276
1729115028995189000,41.07318896484375,0.26958465576171875,0.7224013805389404,-1.0630676746368408
1729115029033123600,41.11112353515625,0.4590435028076172,0.8059329986572266,-1.0502194166183472
1729115029071058200,41.14905810546875,-0.3952922821044922,1.009697675704956,0.20899979770183563
1729115029108992800,41.18699267578125,0.1722249984741211,0.8302154541015625,0.6476014256477356
1729115029146927400,41.22492724609375,0.38382625579833984,0.4705118238925934,-0.1819174885749817
1729115029184862000,41.26286206054687,0.13063335418701172,0.3071228265762329,-0.0348210334777832
1729115029222796800,41.300796875,0.023633956909179688,0.20145440101623535,0.30500560998916626
1729115029260731400,41.3387314453125,-0.1005563735961914,0.09018421173095703,0.040957510471343994
1729115029298666000,41.376666015625,-0.024329185485839844,0.0697799026966095,0.1649704873561859
1729115029336600600,41.4146005859375,-0.036330223083496094,0.09696482121944427,0.16681703925132751
1729115029374535200,41.45253515625,0.022216796875,0.09497874975204468,0.09946006536483765
1729115029412469800,41.4904697265625,0.0018339157104492188,0.1403646022081375,0.1273920238018036
1729115029450404400,41.528404296875,0.010289192199707031,0.18323835730552673,0.0663524866104126
1729115029488339000,41.5663388671875,-0.009938240051269531,0.23079268634319305,0.09084337949752808
1729115029526273500,41.6042734375,-0.009366035461425781,0.23447318375110626,0.08019298315048218
1729115029564208000,41.6422080078125,-0.004710197448730469,0.20908834040164948,0.0655689537525177
1729115029602142700,41.68014282226562,-0.00017070770263671875,0.15513022243976593,0.06240573525428772
1729115029640077600,41.71807763671875,-0.0017795562744140625,0.12703180313110352,0.053812175989151
1729115029678012200,41.75601220703125,0.013609886169433594,0.10008059442043304,0.04555553197860718
1729115029715946800,41.79394677734375,-0.013482093811035156,0.09587082266807556,0.03728824853897095
1729115029753881300,41.83188134765625,0.005062103271484375,0.08545811474323273,0.04900777339935303
1729115029791816000,41.86981591796875,0.005397796630859375,0.08770710229873657,0.024161696434020996
1729115029829750500,41.90775048828125,-0.004230499267578125,0.06498634070158005,0.018857061862945557
1729115029867685000,41.94568505859375,-0.0143280029296875,0.05765528976917267,0.018272072076797485
1729115029905619700,41.98361962890625,0.01611042022705078,0.05512972176074982,0.026794642210006714
1729115029943554300,42.02155419921875,0.006829261779785156,0.046222105622291565,0.012815028429031372
1729115029981489000,42.05948901367187,0.003833770751953125,0.04303606599569321,0.012231200933456421
1729115030019423500,42.09742358398437,0.004170417785644531,0.03968573361635208,0.008610725402832031
1729115030057358000,42.135358154296874,-0.0026865005493164062,0.02350759506225586,0.00486147403717041
1729115030095292700,42.173292724609375,0.011423110961914062,0.0432509183883667,0.01933741569519043
1729115030133227500,42.2112275390625,0.004283905029296875,0.039649657905101776,0.026991039514541626
1729115030171162000,42.249162109375,0.0034427642822265625,0.02928037941455841,0.020752936601638794
1729115030209096700,42.2870966796875,0.0031986236572265625,0.02430219203233719,0.012659072875976562
1729115030247031300,42.32503125,0.0038595199584960938,0.008301973342895508,0.009208828210830688
1729115030284966000,42.3629658203125,0.00168609619140625,0.018402807414531708,0.003995031118392944
1729115030322900500,42.400900390625,-0.003772735595703125,0.011707231402397156,0.0032566487789154053
1729115030360835000,42.4388349609375,0.0017824172973632812,0.012392602860927582,-0.0016729235649108887
1729115030398769700,42.47676977539062,-0.001300811767578125,0.010620459914207458,0.004355430603027344
1729115030436704300,42.51470434570312,-0.01635456085205078,0.00024962425231933594,-0.005257010459899902
1729115030474638800,42.552638916015624,0.005015373229980469,0.004016268998384476,0.001872241497039795
1729115030512573400,42.590573486328125,0.009122848510742188,-0.006404068320989609,0.0054905712604522705
1729115030550508000,42.62850805664063,-0.004551887512207031,0.011840905994176865,0.014136731624603271
1729115030588442600,42.66644262695313,-0.0065746307373046875,0.011258870363235474,0.004513978958129883
1729115030626377500,42.70437744140625,-0.021689414978027344,0.01061728224158287,0.006835311651229858
1729115030664312000,42.74231201171875,0.01833629608154297,0.016696270555257797,0.004408359527587891
1729115030702246700,42.78024658203125,-0.014794349670410156,0.0019177012145519257,-0.00016051530838012695
1729115030740181200,42.81818115234375,0.004643440246582031,0.008437186479568481,0.006309300661087036
1729115030778115800,42.85611572265625,0.008289337158203125,0.0033237747848033905,0.0017796456813812256
1729115030816050400,42.89405053710937,-0.00152587890625,-0.004003997892141342,0.0014061927795410156
1729115030853985000,42.93198510742187,-0.0032415390014648438,0.0029007606208324432,-0.007886350154876709
1729115030891919600,42.969919677734374,0.005904197692871094,-0.0024938881397247314,-0.0033394992351531982
1729115030929854200,43.007854248046876,0.007655143737792969,0.011285435408353806,-0.0007972121238708496
1729115030967788800,43.04578881835938,0.00783538818359375,0.0041290707886219025,0.009013444185256958
1729115031005723400,43.08372338867188,0.012017250061035156,0.015087030827999115,0.008695423603057861
1729115031043658000,43.12165795898437,-0.06494903564453125,0.029744479805231094,-0.5463519096374512
1729115031081592600,43.15959252929687,0.16115856170654297,-0.03642401844263077,0.19754885137081146
1729115031119527400,43.19752734375,0.2463064193725586,-0.1047305315732956,-0.08034417033195496
1729115031157462000,43.2354619140625,-0.2425832748413086,-0.027444396167993546,-0.14115378260612488
1729115031195396600,43.27339672851563,0.13661861419677734,-0.04256901144981384,0.15349744260311127
1729115031233331200,43.31133129882812,-0.083770751953125,-0.03105330467224121,-0.07926836609840393
1729115031271265800,43.34926586914062,0.035180091857910156,-0.02077675610780716,0.06221561133861542
1729115031309200400,43.387200439453125,-0.02853107452392578,0.011801082640886307,-0.016977459192276
1729115031347135000,43.425135009765626,0.011976242065429688,0.017802134156227112,0.033961862325668335
1729115031385069600,43.46306958007813,-0.018959999084472656,0.01778537780046463,-0.0030675530433654785
1729115031423004200,43.50100415039063,0.009964942932128906,-0.004273653030395508,0.00489354133605957
1729115031460938800,43.53893872070312,-0.019624710083007812,-0.0037430599331855774,0.013084501028060913
1729115031498873300,43.57687329101562,0.010886192321777344,-0.0027763061225414276,-0.012148380279541016
1729115031536808000,43.614807861328124,0.001041412353515625,0.002012457698583603,0.006191521883010864
1729115031574742500,43.652742431640625,0.0025625228881835938,-0.0028890110552310944,0.00858411192893982
1729115031612677400,43.69067749023438,-0.017435073852539062,0.00867186114192009,0.006446719169616699
1729115031650612000,43.72861206054687,0.019498825073242188,0.0011372268199920654,0.0022623538970947266
1729115031688546600,43.766546630859374,-0.013892173767089844,0.012717325240373611,-0.05225718021392822
1729115031726481200,43.804481201171875,0.011355400085449219,0.02092946320772171,0.04185579717159271
1729115031764415700,43.842415771484376,-0.025293350219726562,0.0053502656519412994,0.03750580549240112
1729115031802350300,43.88035034179688,0.01160430908203125,-0.022202257066965103,-0.030161678791046143
1729115031840285000,43.91828491210938,-0.03448677062988281,0.0073690637946128845,0.006769150495529175
1729115031878219500,43.95621948242187,0.028779029846191406,-0.012819759547710419,0.0008298754692077637
1729115031916154000,43.99415405273437,0.00005340576171875,-0.018909022212028503,-0.007292717695236206
1729115031954088700,44.032088623046874,0.01436614990234375,-0.012260857969522476,-0.0037970244884490967
1729115031992023300,44.070023193359376,0.015944480895996094,-0.003509659320116043,-0.020617276430130005
1729115032029958000,44.1079580078125,0.036787986755371094,0.06247459724545479,-0.06381335854530334
1729115032067892500,44.145892578125,0.036014556884765625,0.39801254868507385,-0.008470416069030762
1729115032105827000,44.1838271484375,0.010473251342773438,0.5838581323623657,0.024742335081100464
1729115032143761700,44.22176171875,0.10001564025878906,0.575840413570404,-0.10011473298072815
1729115032181696500,44.259696533203126,0.008507728576660156,0.9553380012512207,-0.10286000370979309
1729115032219631000,44.29763110351563,0.14649105072021484,1.1026643514633179,-0.129480242729187
1729115032257565700,44.33556567382813,-0.058246612548828125,1.3036850690841675,-0.07711967825889587
1729115032295500300,44.37350024414062,0.3661384582519531,1.40680730342865,0.11503809690475464
1729115032333435000,44.41143481445312,-0.0008392333984375,1.3210489749908447,-0.21211835741996765
1729115032371369500,44.449369384765625,-0.3940286636352539,1.620455265045166,-0.16073113679885864
1729115032409304000,44.487303955078126,-0.4554738998413086,1.0349676609039307,-0.07751959562301636
1729115032447238700,44.52523876953125,-0.3277549743652344,0.718017578125,0.03578014671802521
1729115032485173200,44.56317333984375,-0.3191375732421875,-0.08201277256011963,-0.17801183462142944
1729115032523107800,44.60110791015625,-0.4246559143066406,-1.2400577068328857,-0.4000760316848755
1729115032561042400,44.63904248046875,-0.9397153854370117,-1.1556808948516846,-0.7868393659591675
1729115032598977000,44.67697705078125,-1.1224031448364258,-1.900081753730774,-1.7855916023254395
1729115032636911600,44.71491162109375,0.09926986694335938,-2.2817881107330322,-2.068605422973633
1729115032674846200,44.75284619140625,-1.0189552307128906,-1.8390476703643799,-1.8125413656234741
1729115032712781000,44.79078100585937,1.6256542205810547,-1.8572871685028076,-1.8225312232971191
1729115032750715600,44.828715576171874,-1.3716449737548828,-2.078899383544922,-2.1803579330444336
1729115032788650200,44.866650146484375,0.9223651885986328,-2.992018461227417,-1.3829424381256104
1729115032826584800,44.904584716796876,-0.37920379638671875,-2.1003308296203613,-0.8004487752914429
1729115032864519400,44.94251953125,0.05335807800292969,-2.6776175498962402,-0.9710181951522827
1729115032902454000,44.9804541015625,-0.016695022583007812,-3.0373589992523193,-0.7488587498664856
1729115032940388600,45.018388671875,-0.21917343139648438,-2.2244460582733154,0.2287890613079071
1729115032978323200,45.0563232421875,0.1351175308227539,-2.0110185146331787,0.11508731544017792
1729115033016257800,45.0942578125,-0.3697214126586914,-1.4883642196655273,0.3388301432132721
1729115033054192400,45.1321923828125,0.14147186279296875,-1.3369966745376587,-0.3218916356563568
1729115033092127000,45.170126953125,-0.012220382690429688,-1.0007495880126953,-0.037088390439748764
1729115033130061600,45.2080615234375,-0.10119915008544922,-0.8172961473464966,0.0660986602306366
1729115033167996200,45.24599609375,0.07264900207519531,-0.7901568412780762,-0.01924280822277069
1729115033205930800,45.2839306640625,0.044302940368652344,-0.6678429841995239,-0.3412802815437317
1729115033243865600,45.321865478515626,-0.018838882446289062,-0.48753052949905396,-0.4905639886856079
1729115033281800200,45.35980029296875,-0.14812660217285156,-0.46362265944480896,-0.21100163459777832
1729115033319734800,45.39773486328125,0.056717872619628906,-0.7738549709320068,-0.38453471660614014
1729115033357669400,45.43566943359375,-0.07315635681152344,-0.6324660778045654,-0.004881694912910461
1729115033395604000,45.47360400390625,0.20454025268554688,-0.9518121480941772,-0.1503082662820816
1729115033433538600,45.51153857421875,-0.43657684326171875,-0.19141623377799988,0.7481562495231628
1729115033471473200,45.54947314453125,-0.23818111419677734,0.000957489013671875,0.2417636513710022
1729115033509407700,45.58740771484375,-0.13551712036132812,-0.1080695390701294,0.49323713779449463
1729115033547342300,45.62534228515625,0.09740066528320312,-0.10121667385101318,0.6417751908302307
1729115033585277000,45.66327685546875,0.15909194946289062,0.26321932673454285,1.1528178453445435
1729115033623211500,45.70121142578125,-0.20302295684814453,0.4627071022987366,1.3462700843811035
1729115033661146000,45.73914599609375,-0.07813739776611328,0.7343127727508545,2.1460819244384766
1729115033699080700,45.77708081054688,0.09096622467041016,0.8478891849517822,2.1146352291107178
1729115033737015300,45.81501538085938,0.08060550689697266,0.5986497402191162,1.2410060167312622
1729115033774950000,45.85294995117187,-0.15573406219482422,0.46575355529785156,0.005441618151962757
1729115033812884500,45.890884521484374,-0.1189432144165039,0.40712428092956543,-0.49028265476226807
1729115033850819000,45.928819091796875,0.23375320434570312,0.37373974919319153,0.09273158013820648
1729115033888754000,45.96675390625,-0.5433483123779297,0.4206356704235077,0.32197055220603943
1729115033926688500,46.0046884765625,0.10160446166992188,0.19205284118652344,-0.3084574043750763
1729115033964623000,46.042623046875,-0.19690704345703125,0.30932700634002686,0.08913765847682953
1729115034002557700,46.0805576171875,0.1183013916015625,0.24381980299949646,-0.014902357943356037
