time,seconds_elapsed,z,y,x
1729114987987846100,0.06584619140625,0.0004581354442052543,-0.0006108472589403391,-0.001985253533348441
1729114988021179100,0.09917919921875,-0.00030542362947016954,0.0009162708884105086,0.0006108472589403391
1729114988054512000,0.13251220703125,-0.00015271181473508477,-0.00007635590736754239,-0.0007635590736754239
1729114988087845000,0.16584521484375,0.0006108472589403391,0,-0.00038177953683771193
1729114988121178000,0.19917822265625,-0.00015271181473508477,0.0005344913806766272,0.0004581354442052543
1729114988154511400,0.232511474609375,-0.00015271181473508477,-0.00015271181473508477,-0.00022906772210262716
1729114988187844400,0.26584423828125,0.0004581354442052543,0.00022906772210262716,0.00015271181473508477
1729114988221177300,0.29917724609375,-0.00015271181473508477,0.00022906772210262716,-0.00030542362947016954
1729114988254510300,0.33251025390625,-0.00015271181473508477,0.0005344913806766272,0.0004581354442052543
1729114988287843300,0.36584326171875,-0.000687203137204051,0,-0.00015271181473508477
1729114988321176300,0.39917626953125,0.0004581354442052543,0,-0.00015271181473508477
1729114988354509300,0.43250927734375,0,0.00038177953683771193,0.00030542362947016954
1729114988387842300,0.46584228515625,-0.00015271181473508477,0.0010689827613532543,-0.00015271181473508477
1729114988421175300,0.49917529296875,-0.00015271181473508477,0,0.00038177953683771193
1729114988454508500,0.532508544921875,-0.00015271181473508477,0,-0.00015271181473508477
1729114988487841500,0.565841552734375,-0.00015271181473508477,-0.00022906772210262716,0.00007635590736754239
1729114988521174500,0.599174560546875,-0.00015271181473508477,-0.00007635590736754239,-0.00015271181473508477
1729114988554507500,0.632507568359375,-0.00015271181473508477,-0.00007635590736754239,0.00038177953683771193
1729114988587840500,0.665840576171875,-0.00015271181473508477,0,-0.00015271181473508477
1729114988621173500,0.699173583984375,0.00007635590736754239,0.00038177953683771193,-0.00015271181473508477
1729114988654506500,0.732506591796875,-0.00015271181473508477,0,0.00038177953683771193
1729114988687839500,0.765839599609375,-0.00015271181473508477,0.0005344913806766272,0.0004581354442052543
1729114988721172500,0.79917236328125,0.00007635590736754239,0,-0.00015271181473508477
1729114988754505700,0.832505615234375,-0.00015271181473508477,0,-0.00015271181473508477
1729114988787838700,0.865838623046875,-0.00015271181473508477,0.0006108472589403391,-0.00015271181473508477
1729114988821171700,0.899171630859375,0.00038177953683771193,0.0006108472589403391,-0.00015271181473508477
1729114988854504700,0.932504638671875,-0.00015271181473508477,0,-0.00015271181473508477
1729114988887837700,0.965837646484375,-0.00015271181473508477,0,-0.00015271181473508477
1729114988921170700,0.999170654296875,0.00030542362947016954,0.0004581354442052543,-0.00015271181473508477
1729114988954503700,1.032503662109375,0.0004581354442052543,0,-0.00015271181473508477
1729114988987836700,1.065836669921875,0,0.00022906772210262716,-0.00015271181473508477
1729114989021169700,1.099169677734375,0.0004581354442052543,0,0.00022906772210262716
1729114989054503000,1.1325029296875,0.00030542362947016954,0,-0.00015271181473508477
1729114989087836000,1.1658359375,-0.00015271181473508477,-0.0006108472589403391,0.0004581354442052543
1729114989121169000,1.1991689453125,0,0.0004581354442052543,0.00030542362947016954
1729114989154502000,1.232501953125,-0.00015271181473508477,0,-0.00015271181473508477
1729114989187835000,1.2658349609375,0.00030542362947016954,0,-0.00015271181473508477
1729114989221167900,1.29916796875,0.0004581354442052543,0,0.0004581354442052543
1729114989254500900,1.3325009765625,0.0004581354442052543,0.0006108472589403391,-0.00015271181473508477
1729114989287833900,1.365833740234375,0.00015271181473508477,0,-0.0004581354442052543
1729114989321166800,1.399166748046875,0,0.0006108472589403391,-0.00015271181473508477
1729114989354500000,1.4325,0.00038177953683771193,-0.00007635590736754239,-0.00015271181473508477
1729114989387833000,1.4658330078125,0.0008399150101467967,-0.00015271181473508477,-0.00015271181473508477
1729114989421166000,1.499166015625,0.00007635590736754239,0.00030542362947016954,-0.00038177953683771193
1729114989454499000,1.5324990234375,-0.00038177953683771193,0.0006108472589403391,-0.00015271181473508477
1729114989487832000,1.56583203125,-0.00015271181473508477,0.0005344913806766272,-0.00007635590736754239
1729114989521165000,1.5991650390625,-0.000687203137204051,0,0.0004581354442052543
1729114989554498000,1.632498046875,0.00022906772210262716,0.00030542362947016954,0.00022906772210262716
1729114989587831000,1.6658310546875,-0.00015271181473508477,0.0006108472589403391,0.0004581354442052543
1729114989621164000,1.6991640625,0.0004581354442052543,-0.00007635590736754239,-0.00015271181473508477
1729114989654497300,1.732497314453125,-0.00007635590736754239,-0.00007635590736754239,-0.00015271181473508477
1729114989687830300,1.765830322265625,-0.00038177953683771193,0.00022906772210262716,-0.00015271181473508477
1729114989721163300,1.799163330078125,-0.00038177953683771193,-0.00015271181473508477,-0.00015271181473508477
1729114989754496300,1.832496337890625,-0.00030542362947016954,-0.00015271181473508477,-0.00007635590736754239
1729114989787829200,1.865829345703125,-0.00030542362947016954,0.00038177953683771193,-0.0006108472589403391
1729114989821162200,1.899162353515625,-0.00022906772210262716,-0.00015271181473508477,0.0005344913806766272
1729114989854495200,1.9324951171875,0.00015271181473508477,-0.0004581354442052543,0.00030542362947016954
1729114989887828200,1.965828125,0.00038177953683771193,-0.00007635590736754239,-0.00007635590736754239
1729114989921161200,1.9991611328125,0.00038177953683771193,-0.00015271181473508477,-0.00007635590736754239
1729114989954494500,2.032494384765625,-0.00015271181473508477,-0.00022906772210262716,0.00030542362947016954
1729114989987827500,2.065827392578125,0.0004581354442052543,-0.0005344913806766272,-0.00007635590736754239
1729114990021160400,2.099160400390625,-0.0006108472589403391,-0.00030542362947016954,-0.00007635590736754239
1729114990054493400,2.132493408203125,-0.00015271181473508477,-0.00022906772210262716,0.0004581354442052543
1729114990087826400,2.165826416015625,0.00007635590736754239,0.00022906772210262716,-0.00015271181473508477
1729114990121159400,2.199159423828125,0.00015271181473508477,-0.00015271181473508477,-0.00015271181473508477
1729114990154492400,2.232492431640625,0.00038177953683771193,-0.00015271181473508477,-0.00015271181473508477
1729114990187825400,2.265825439453125,0.0004581354442052543,-0.00015271181473508477,-0.00015271181473508477
1729114990221158400,2.299158447265625,0.00007635590736754239,-0.00007635590736754239,0.00030542362947016954
1729114990254491600,2.33249169921875,-0.00007635590736754239,-0.00007635590736754239,-0.00015271181473508477
1729114990287824600,2.36582470703125,-0.00015271181473508477,-0.00007635590736754239,0.0004581354442052543
1729114990321157600,2.39915771484375,-0.00015271181473508477,0.0005344913806766272,0.0004581354442052543
1729114990354490600,2.43249072265625,0.0008399150101467967,-0.00007635590736754239,-0.00015271181473508477
1729114990387823600,2.46582373046875,-0.0004581354442052543,-0.00038177953683771193,0.00022906772210262716
1729114990421156600,2.499156494140625,-0.00015271181473508477,0.00015271181473508477,-0.00015271181473508477
1729114990454489600,2.532489501953125,-0.00022906772210262716,0.0006108472589403391,-0.000687203137204051
1729114990487822600,2.565822509765625,-0.0007635590736754239,0.00007635590736754239,-0.00015271181473508477
1729114990521155600,2.599155517578125,-0.00015271181473508477,0,-0.0004581354442052543
1729114990554488800,2.63248876953125,-0.00015271181473508477,0,-0.00015271181473508477
1729114990587821800,2.66582177734375,-0.00015271181473508477,0,-0.00015271181473508477
1729114990621154800,2.69915478515625,0.0004581354442052543,-0.0005344913806766272,0.00038177953683771193
1729114990654487800,2.73248779296875,-0.00015271181473508477,0,-0.00022906772210262716
1729114990687820800,2.76582080078125,-0.00015271181473508477,0.00015271181473508477,-0.00015271181473508477
1729114990721153800,2.79915380859375,0,0,-0.00015271181473508477
1729114990754486800,2.83248681640625,0,0,-0.00015271181473508477
1729114990787819800,2.86581982421875,0.0007635590736754239,-0.00030542362947016954,0.00015271181473508477
1729114990821153000,2.899153076171875,0.0005344913806766272,0.00030542362947016954,-0.00007635590736754239
1729114990854486000,2.932486083984375,0,-0.00015271181473508477,0
1729114990887819000,2.965819091796875,-0.0006108472589403391,0.0004581354442052543,0
1729114990921152000,2.999152099609375,-0.00007635590736754239,-0.00007635590736754239,0.00030542362947016954
1729114990954485000,3.032485107421875,0.0005344913806766272,0.00030542362947016954,-0.00007635590736754239
1729114990987818000,3.06581787109375,0.00038177953683771193,-0.00007635590736754239,-0.00007635590736754239
1729114991021151000,3.09915087890625,-0.00007635590736754239,-0.00007635590736754239,-0.00007635590736754239
1729114991054484000,3.13248388671875,0.00030542362947016954,0,0.00015271181473508477
1729114991087817000,3.16581689453125,-0.00015271181473508477,0,-0.00007635590736754239
1729114991121150200,3.199150146484375,-0.00007635590736754239,0,-0.00007635590736754239
1729114991154483200,3.232483154296875,-0.00015271181473508477,-0.0006108472589403391,-0.00007635590736754239
1729114991187816200,3.265816162109375,-0.00022906772210262716,0.00038177953683771193,-0.00007635590736754239
1729114991221149200,3.299149169921875,0.00038177953683771193,0,0.00022906772210262716
1729114991254482200,3.332482177734375,-0.00007635590736754239,0.0004581354442052543,0.0005344913806766272
1729114991287815200,3.365815185546875,0.00038177953683771193,-0.0006108472589403391,-0.00007635590736754239
1729114991321148200,3.399148193359375,0.00038177953683771193,-0.00015271181473508477,-0.00007635590736754239
1729114991354481200,3.432481201171875,0.00007635590736754239,0,0.00022906772210262716
1729114991387814100,3.465814208984375,-0.00022906772210262716,0.00015271181473508477,-0.00007635590736754239
1729114991421147400,3.4991474609375,-0.00030542362947016954,0,-0.00007635590736754239
1729114991454480400,3.53248046875,0.00022906772210262716,0,0.00038177953683771193
1729114991487813400,3.5658134765625,0.00007635590736754239,0.00030542362947016954,-0.0004581354442052543
1729114991521146400,3.599146484375,0.00015271181473508477,0,0.00007635590736754239
1729114991554479400,3.632479248046875,0.00030542362947016954,0,-0.00015271181473508477
1729114991587812400,3.665812255859375,0.0008399150101467967,0,0.00038177953683771193
1729114991621145300,3.699145263671875,0,0,-0.00015271181473508477
1729114991654478300,3.732478271484375,0.00030542362947016954,0.00038177953683771193,0.00030542362947016954
1729114991687811300,3.765811279296875,-0.00022906772210262716,0.0005344913806766272,-0.00015271181473508477
1729114991721144600,3.79914453125,-0.00015271181473508477,0.0004581354442052543,0.00038177953683771193
1729114991754477600,3.8324775390625,0.00007635590736754239,0.00022906772210262716,-0.00015271181473508477
1729114991787810600,3.865810546875,-0.00030542362947016954,0.0006108472589403391,-0.00015271181473508477
1729114991821143600,3.8991435546875,-0.00038177953683771193,-0.00007635590736754239,-0.00015271181473508477
1729114991854476500,3.9324765625,0.00007635590736754239,-0.00007635590736754239,-0.000687203137204051
1729114991887809500,3.9658095703125,-0.00007635590736754239,0.0005344913806766272,-0.00015271181473508477
1729114991921142500,3.999142578125,0.00030542362947016954,-0.00007635590736754239,-0.00015271181473508477
1729114991954475500,4.0324755859375,-0.00038177953683771193,0.0005344913806766272,-0.00015271181473508477
1729114991987808500,4.06580859375,0.00015271181473508477,-0.00007635590736754239,-0.00015271181473508477
1729114992021141800,4.099141845703125,-0.00015271181473508477,-0.00015271181473508477,-0.00030542362947016954
1729114992054474800,4.132474853515625,-0.00007635590736754239,-0.00038177953683771193,0.00022906772210262716
1729114992087807700,4.165807861328125,-0.00030542362947016954,0.00030542362947016954,0.00038177953683771193
1729114992121140700,4.199140625,-0.00030542362947016954,-0.00022906772210262716,-0.00007635590736754239
1729114992154473700,4.2324736328125,-0.00030542362947016954,0.00038177953683771193,0.00015271181473508477
1729114992187806700,4.265806640625,0.00038177953683771193,-0.00022906772210262716,0.00015271181473508477
1729114992221139700,4.2991396484375,-0.00015271181473508477,-0.00022906772210262716,-0.00007635590736754239
1729114992254472700,4.33247265625,-0.00022906772210262716,-0.00022906772210262716,-0.0006108472589403391
1729114992287805700,4.3658056640625,-0.00030542362947016954,0.00015271181473508477,-0.0004581354442052543
1729114992321139000,4.399138916015625,-0.00022906772210262716,-0.00022906772210262716,-0.00007635590736754239
1729114992354472000,4.432471923828125,-0.00022906772210262716,-0.0008399150101467967,-0.00007635590736754239
1729114992387805000,4.465804931640625,-0.00022906772210262716,-0.00022906772210262716,-0.00007635590736754239
1729114992421138000,4.499137939453125,-0.00022906772210262716,-0.00022906772210262716,0
1729114992454471000,4.532470947265625,0.00007635590736754239,0.00007635590736754239,0
1729114992487804000,4.565803955078125,0.00022906772210262716,-0.00022906772210262716,0
1729114992521137000,4.599136962890625,0.00038177953683771193,0.0004581354442052543,-0.0006108472589403391
1729114992554470000,4.632469970703125,-0.00015271181473508477,-0.00015271181473508477,0.0004581354442052543
1729114992587803000,4.665802978515625,-0.00015271181473508477,0.00015271181473508477,0
1729114992621136100,4.69913623046875,-0.00015271181473508477,-0.00015271181473508477,-0.0004581354442052543
1729114992654469000,4.73246923828125,-0.00015271181473508477,0.0004581354442052543,0
1729114992687802000,4.765802001953125,0.0004581354442052543,-0.00007635590736754239,0
1729114992721135000,4.799135009765625,-0.00015271181473508477,0.0005344913806766272,0
1729114992754468000,4.832468017578125,-0.00015271181473508477,0.00030542362947016954,0
1729114992787801000,4.865801025390625,-0.00007635590736754239,-0.00007635590736754239,0.0006108472589403391
1729114992821134000,4.899134033203125,0,0,0
1729114992854467000,4.932467041015625,-0.00015271181473508477,-0.00007635590736754239,0
1729114992887800000,4.965800048828125,-0.00015271181473508477,0.0005344913806766272,0.0004581354442052543
1729114992921133300,4.99913330078125,-0.00007635590736754239,-0.00007635590736754239,0
1729114992954466300,5.03246630859375,0.0004581354442052543,0,0
1729114992987799300,5.06579931640625,0.00022906772210262716,-0.00015271181473508477,-0.00022906772210262716
1729114993021132300,5.09913232421875,0.00022906772210262716,0.0004581354442052543,0
1729114993054465300,5.13246533203125,-0.00015271181473508477,0.0004581354442052543,0
1729114993087798300,5.16579833984375,-0.00015271181473508477,0.0004581354442052543,-0.0005344913806766272
1729114993121131300,5.19913134765625,0.00022906772210262716,-0.00015271181473508477,-0.00022906772210262716
1729114993154464300,5.23246435546875,0.0004581354442052543,-0.00022906772210262716,0
1729114993187797500,5.265797607421875,-0.00022906772210262716,-0.00022906772210262716,-0.00007635590736754239
1729114993221130500,5.299130615234375,0.00038177953683771193,-0.0007635590736754239,-0.00007635590736754239
1729114993254463500,5.33246337890625,-0.00015271181473508477,-0.00022906772210262716,0.00022906772210262716
1729114993287796500,5.36579638671875,0.0004581354442052543,-0.00022906772210262716,0.0006108472589403391
1729114993321129500,5.39912939453125,0.0004581354442052543,-0.00022906772210262716,0.0006108472589403391
1729114993354462500,5.43246240234375,-0.00015271181473508477,0.00030542362947016954,0.00007635590736754239
1729114993387795500,5.46579541015625,0.0004581354442052543,-0.00022906772210262716,0
1729114993421128400,5.49912841796875,0.00007635590736754239,-0.00022906772210262716,0
1729114993454461400,5.53246142578125,0.00030542362947016954,-0.00022906772210262716,0
1729114993487794700,5.565794677734375,0.00038177953683771193,0.0009926267666742206,0
1729114993521127700,5.599127685546875,-0.00007635590736754239,-0.00007635590736754239,0
1729114993554460700,5.632460693359375,-0.00022906772210262716,-0.00022906772210262716,0.0006108472589403391
1729114993587793700,5.665793701171875,-0.00022906772210262716,0.00030542362947016954,0
1729114993621126700,5.699126708984375,-0.00022906772210262716,-0.00015271181473508477,0
1729114993654459600,5.732459716796875,-0.00015271181473508477,0.00030542362947016954,0
1729114993687792600,5.765792724609375,0,-0.00015271181473508477,-0.00007635590736754239
1729114993721125600,5.799125732421875,0.00015271181473508477,0.0004581354442052543,0.0005344913806766272
1729114993754458600,5.832458740234375,-0.00030542362947016954,-0.0007635590736754239,-0.00007635590736754239
1729114993787792000,5.8657919921875,0.00015271181473508477,0.00038177953683771193,0.00038177953683771193
1729114993821124900,5.899124755859375,-0.00030542362947016954,0.00015271181473508477,-0.0004581354442052543
1729114993854457900,5.932457763671875,0.00030542362947016954,0.00007635590736754239,-0.00007635590736754239
1729114993887790800,5.965790771484375,-0.00030542362947016954,-0.00015271181473508477,-0.00015271181473508477
1729114993921123800,5.999123779296875,-0.00030542362947016954,-0.00015271181473508477,-0.00015271181473508477
1729114993954456800,6.032456787109375,-0.00030542362947016954,-0.00015271181473508477,0.00022906772210262716
1729114993987789800,6.065789794921875,-0.00030542362947016954,-0.00015271181473508477,-0.00015271181473508477
1729114994021122800,6.099122802734375,-0.00030542362947016954,-0.00015271181473508477,0.0004581354442052543
1729114994054455800,6.132455810546875,-0.00038177953683771193,-0.00015271181473508477,-0.0006108472589403391
1729114994087789000,6.1657890625,0.0007635590736754239,-0.00015271181473508477,-0.0005344913806766272
1729114994121122000,6.1991220703125,-0.00022906772210262716,0.00022906772210262716,0.0004581354442052543
1729114994154455000,6.232455078125,0.00030542362947016954,-0.00007635590736754239,-0.00015271181473508477
1729114994187788000,6.2657880859375,-0.00022906772210262716,-0.00007635590736754239,-0.00015271181473508477
1729114994221121000,6.29912109375,0.00015271181473508477,-0.00015271181473508477,0.00030542362947016954
1729114994254454000,6.3324541015625,0.00015271181473508477,-0.0005344913806766272,-0.00038177953683771193
1729114994287787000,6.365787109375,-0.00007635590736754239,-0.00015271181473508477,-0.00007635590736754239
1729114994321120000,6.3991201171875,0.0004581354442052543,-0.00015271181473508477,-0.00007635590736754239
1729114994354453000,6.432452880859375,0,0.0004581354442052543,-0.00007635590736754239
1729114994387786200,6.4657861328125,-0.00015271181473508477,-0.00015271181473508477,-0.00007635590736754239
1729114994421119200,6.499119140625,-0.00015271181473508477,0.00038177953683771193,-0.0006108472589403391
1729114994454452200,6.5324521484375,0.00038177953683771193,-0.00007635590736754239,-0.00007635590736754239
1729114994487785200,6.56578515625,-0.0006108472589403391,0.00030542362947016954,-0.00007635590736754239
1729114994521118200,6.5991181640625,0.00007635590736754239,0.00022906772210262716,-0.00007635590736754239
1729114994554451200,6.632451171875,-0.00007635590736754239,-0.00007635590736754239,-0.00007635590736754239
1729114994587784200,6.6657841796875,0.0004581354442052543,-0.00007635590736754239,-0.00007635590736754239
1729114994621117200,6.6991171875,0.00022906772210262716,-0.00007635590736754239,0
1729114994654450200,6.7324501953125,0.00007635590736754239,0.00022906772210262716,0
1729114994687783400,6.765783447265625,0.00038177953683771193,-0.00007635590736754239,0
1729114994721116400,6.799116455078125,-0.00022906772210262716,-0.000687203137204051,0.0006108472589403391
1729114994754449400,6.832449462890625,0.00022906772210262716,-0.00007635590736754239,0
1729114994787782400,6.865782470703125,-0.00022906772210262716,0.0005344913806766272,-0.00030542362947016954
1729114994821115400,6.899115478515625,-0.00022906772210262716,0.00007635590736754239,0
1729114994854448400,6.932448486328125,-0.0008399150101467967,0.0004581354442052543,0
1729114994887781400,6.965781494140625,0.00022906772210262716,-0.00015271181473508477,0
1729114994921114400,6.9991142578125,-0.00022906772210262716,-0.00015271181473508477,0.00030542362947016954
1729114994954447400,7.032447265625,-0.00007635590736754239,0.00015271181473508477,0
1729114994987780600,7.065780517578125,-0.0008399150101467967,-0.00007635590736754239,0.0006108472589403391
1729114995021113600,7.099113525390625,-0.00030542362947016954,0,0.00015271181473508477
1729114995054446600,7.132446533203125,0.00007635590736754239,0.00022906772210262716,0.0006108472589403391
1729114995087779600,7.165779541015625,0.00022906772210262716,-0.00015271181473508477,0
1729114995121112600,7.199112548828125,-0.00022906772210262716,-0.00007635590736754239,0
1729114995154445600,7.232445556640625,-0.000687203137204051,0.0004581354442052543,0
1729114995187778600,7.265778564453125,-0.0004581354442052543,-0.00015271181473508477,0
1729114995221111600,7.299111572265625,0.00022906772210262716,-0.00015271181473508477,-0.00007635590736754239
1729114995254444500,7.332444580078125,-0.0006108472589403391,-0.00015271181473508477,0.0004581354442052543
1729114995287777800,7.36577783203125,-0.00007635590736754239,-0.00015271181473508477,-0.00007635590736754239
1729114995321110800,7.39911083984375,-0.00015271181473508477,-0.00015271181473508477,-0.00007635590736754239
1729114995354443800,7.43244384765625,-0.00030542362947016954,0.0004581354442052543,0.00015271181473508477
1729114995387776800,7.46577685546875,0,0.0004581354442052543,-0.00007635590736754239
1729114995421109800,7.49910986328125,0.0005344913806766272,0.0004581354442052543,0.0004581354442052543
1729114995454442800,7.53244287109375,0.0009926267666742206,0.00022906772210262716,0.00030542362947016954
1729114995487775700,7.565775634765625,-0.00007635590736754239,0.00022906772210262716,-0.00015271181473508477
1729114995521108700,7.599108642578125,0,-0.00015271181473508477,-0.00015271181473508477
1729114995554442000,7.63244189453125,0.0005344913806766272,-0.00015271181473508477,-0.00015271181473508477
1729114995587775000,7.66577490234375,0.00015271181473508477,-0.00015271181473508477,0.00007635590736754239
1729114995621108000,7.69910791015625,0,0.00015271181473508477,-0.00015271181473508477
1729114995654441000,7.73244091796875,0.0005344913806766272,-0.000687203137204051,0.00038177953683771193
1729114995687774000,7.76577392578125,-0.0006108472589403391,-0.00022906772210262716,0.0004581354442052543
1729114995721107000,7.79910693359375,-0.00022906772210262716,-0.00022906772210262716,-0.00015271181473508477
1729114995754440000,7.83243994140625,0.00022906772210262716,-0.00022906772210262716,-0.00015271181473508477
1729114995787773000,7.86577294921875,0.00007635590736754239,-0.00022906772210262716,0.0006108472589403391
1729114995821106000,7.89910595703125,0.0005344913806766272,-0.0007635590736754239,0.0010689827613532543
1729114995854439200,7.932439208984375,0.0038177953101694584,-0.004428642801940441,0.005344913341104984
1729114995887772200,7.965772216796875,0.02489202655851841,-0.005955760832875967,0.008704573847353458
1729114995921105200,7.999105224609375,0.041766680777072906,-0.005726693198084831,0.012446013279259205
1729114995954438100,8.032438232421875,0.07589777559041977,-0.001985253533348441,0.007711946498602629
1729114995987771100,8.065771240234374,0.12064233422279358,0.001374406274408102,0.007177455350756645
1729114996021104000,8.099104248046874,0.18630841374397278,0.0032833039294928312,0.01046075951308012
1729114996054437000,8.13243701171875,0.26464956998825073,0.0017561858985573053,0.009315420873463154
1729114996087770000,8.16577001953125,0.32222193479537964,0.01511846948415041,0.013514995574951172
1729114996121103000,8.19910302734375,0.37834352254867554,0.035352785140275955,-0.005726693198084831
1729114996154436400,8.232436279296875,0.4258368909358978,0.005497625097632408,0.0035887276753783226
1729114996187769300,8.265769287109375,0.4590517282485962,-0.016721943393349648,0.0032069480512291193
1729114996221102300,8.299102294921875,0.4722612798213959,-0.037567105144262314,-0.012827792204916477
1729114996254435300,8.332435302734375,0.5028036236763,-0.04306473210453987,0.035200074315071106
1729114996287768300,8.365768310546875,0.5414397120475769,-0.027793550863862038,0.0036650835536420345
1729114996321101300,8.399101318359374,0.6137487888336182,0.006032116711139679,0.008093725889921188
1729114996354434300,8.432434326171874,0.7219451069831848,-0.010918894782662392,0.004428642801940441
1729114996387767300,8.465767333984376,0.8160919547080994,0.021914144977927208,-0.012064233422279358
1729114996421100300,8.499100341796876,0.8864920735359192,0.031534988433122635,0.004504998680204153
1729114996454433500,8.53243359375,0.8975636959075928,0.021685076877474785,-0.001985253533348441
1729114996487766500,8.5657666015625,0.7963921427726746,0.021990500390529633,0.0036650835536420345
1729114996521099500,8.599099609375,0.6901046633720398,-0.04016320779919624,-0.017561858519911766
1729114996554432500,8.6324326171875,0.6329904794692993,-0.02870982140302658,0.004352286923676729
1729114996587765500,8.665765625,0.5904602408409119,-0.05016583204269409,-0.04214845970273018
1729114996621098500,8.699098388671874,0.5493044257164001,0.008780929259955883,-0.0689493864774704
1729114996654431500,8.732431396484374,0.5447230339050293,-0.050547610968351364,-0.012751436792314053
1729114996687764500,8.765764404296876,0.4489727318286896,0.05421269312500954,-0.04306473210453987
1729114996721097500,8.799097412109376,0.4300364851951599,0.009468132629990578,-0.0364217683672905
1729114996754430700,8.8324306640625,0.39888325333595276,0.01794363744556904,-0.0038941511884331703
1729114996787763700,8.865763671875,0.35322242975234985,-0.00519220158457756,-0.037948887795209885
1729114996821096700,8.8990966796875,0.28098973631858826,-0.0014507622690871358,0.038101598620414734
1729114996854429700,8.9324296875,0.2089097648859024,0.043981000781059265,0.006261184345930815
1729114996887762700,8.9657626953125,0.12736165523529053,-0.013362283818423748,0.028480753302574158
1729114996921095700,8.999095703125,0.08261708915233612,-0.047798797488212585,-0.02420482225716114
1729114996954428700,9.0324287109375,0.072843536734581,-0.050013117492198944,0.0032833039294928312
1729114996987761700,9.06576171875,0.04489727318286896,0.021990500390529633,-0.03802524134516716
1729114997021094700,9.0990947265625,0.016340164467692375,-0.036192700266838074,-0.034665580838918686
1729114997054428000,9.132427978515626,-0.00992626789957285,-0.05444176122546196,-0.018783552572131157
1729114997087761000,9.165760986328126,-0.07887565344572067,0.008933641016483307,0.00786465872079134
1729114997121094000,9.199093994140625,-0.1441599577665329,-0.017027366906404495,0.04947862774133682
1729114997154427000,9.232427001953125,-0.23624517023563385,-0.08490777015686035,0.06589514762163162
1729114997187759900,9.265759765625,-0.3190913498401642,0.022906772792339325,0.0778830274939537
1729114997221092900,9.2990927734375,-0.4638621509075165,0.10957072675228119,0.07330167293548584
1729114997254425900,9.33242578125,-0.5867951512336731,-0.023212196305394173,0.006719320081174374
1729114997287758800,9.3657587890625,-0.6781931519508362,0.004504998680204153,0.11086877435445786
1729114997321091800,9.399091796875,-0.8361735343933105,-0.04909684881567955,-0.02053973823785782
1729114997354425000,9.432425048828126,-0.9954519867897034,-0.10140064358711243,0.07353074103593826
1729114997387758000,9.465758056640626,-1.1366339921951294,-0.014278554357588291,0.006642963737249374
1729114997421091000,9.499091064453125,-1.2854516506195068,0.03268032893538475,0.05306735634803772
1729114997454424000,9.532424072265625,-1.3756279945373535,-0.01779092662036419,-0.03145863488316536
1729114997487757000,9.565757080078125,-1.4512966871261597,-0.0623827762901783,-0.017180079594254494
1729114997521090000,9.599090087890625,-1.4945142269134521,-0.006719320081174374,-0.04428642615675926
1729114997554423000,9.632423095703125,-1.5109306573867798,-0.0361163429915905,-0.08780929446220398
1729114997587756000,9.665756103515625,-1.4706147909164429,-0.11338852345943451,-0.09765920788049698
1729114997621089000,9.699089111328124,-1.3947933912277222,-0.13408097624778748,0.007177455350756645
1729114997654422300,9.73242236328125,-1.3153831958770752,-0.30191126465797424,-0.13530266284942627
1729114997687755300,9.76575537109375,-1.3059914112091064,-0.3009186387062073,0.027717193588614464
1729114997721088300,9.799088134765626,-1.1157888174057007,-0.17454960942268372,-0.03634541109204292
1729114997754421200,9.832421142578125,-1.1866471767425537,-0.050929389894008636,-0.020310672000050545
1729114997787754200,9.865754150390625,-1.1566393375396729,0.05215108394622803,0.07971556484699249
1729114997821087200,9.899087158203125,-1.0922712087631226,0.03458922728896141,-0.023593975231051445
1729114997854420200,9.932420166015625,-1.0189695358276367,0.12453648447990417,0.08437328040599823
1729114997887753200,9.965753173828125,-0.9144383668899536,0.09567394852638245,-0.1014770045876503
1729114997921086500,9.99908642578125,-0.8124268651008606,0.11674818396568298,-0.03588727489113808
1729114997954419500,10.03241943359375,-0.7003363966941833,0.06841489672660828,-0.052456509321928024
1729114997987752400,10.06575244140625,-0.6003865003585815,0.018630841746926308,-0.0492495596408844
1729114998021085400,10.09908544921875,-0.5311316847801208,0.006413896102458239,0.011377030052244663
1729114998054418400,10.13241845703125,-0.4115583300590515,0.020845163613557816,-0.03855973482131958
1729114998087751400,10.16575146484375,-0.30099499225616455,0.06589514762163162,0.01626380905508995
1729114998121084400,10.19908447265625,-0.21921780705451965,0.12033691257238388,-0.004046862944960594
1729114998154417400,10.23241748046875,-0.14423631131649017,0.2438807636499405,0.012446013279259205
1729114998187750400,10.26575048828125,-0.08345700800418854,0.3599417507648468,0.034283801913261414
1729114998221083600,10.299083740234375,-0.06734590977430344,0.1530935913324356,-0.1862320601940155
1729114998254416600,10.332416748046874,-0.004123218823224306,0.06436803191900253,0.02008160389959812
1729114998287749600,10.36574951171875,0.09155073016881943,0.022372281178832054,-0.0659715011715889
1729114998321082600,10.39908251953125,0.1946312040090561,0.04291202127933502,-0.0528382882475853
1729114998354415600,10.43241552734375,0.2934357523918152,-0.048638712614774704,-0.027029991149902344
1729114998387748600,10.46574853515625,0.35329878330230713,-0.02817532978951931,0.03077143058180809
1729114998421081600,10.49908154296875,0.44003909826278687,-0.13385190069675446,-0.13629528880119324
1729114998454414600,10.53241455078125,0.5358657836914062,-0.03787253051996231,-0.06879667192697525
1729114998487747600,10.56574755859375,0.6086329221725464,0.009239064529538155,-0.05184566229581833
1729114998521080800,10.599080810546875,0.6772769093513489,-0.03374931216239929,-0.018249060958623886
1729114998554413800,10.632413818359375,0.7661551833152771,-0.09284878522157669,0.04940227046608925
1729114998587746800,10.665746826171874,0.8756495714187622,0.002672456670552492,0.0231358390301466
1729114998621079800,10.699079833984374,0.9781955480575562,0.020157959312200546,-0.008017370477318764
1729114998654412800,10.732412841796876,1.0059890747070312,0.013438640162348747,0.030542362481355667
1729114998687745800,10.765745849609376,1.0530242919921875,-0.025121092796325684,0.02092151902616024
1729114998721078800,10.799078857421875,1.0310338735580444,0.022601349279284477,0.0198525357991457
1729114998754411800,10.832411865234375,0.9855256676673889,0.012675080448389053,-0.03962871432304382
1729114998787744800,10.865744873046875,0.9476531744003296,0.014660334214568138,-0.03306210786104202
1729114998821078000,10.899078125,0.8813762664794922,0.014431266114115715,-0.08788564801216125
1729114998854411000,10.932410888671875,0.8364789485931396,0.045202698558568954,-0.08635853230953217
1729114998887744000,10.965743896484375,0.8220477104187012,-0.01175880990922451,-0.06933116167783737
1729114998921077000,10.999076904296874,0.7822662591934204,0.02970244735479355,-0.04856235533952713
1729114998954410000,11.032409912109374,0.7829535007476807,0.021532366052269936,0.012369656935334206
1729114998987743000,11.065742919921876,0.7875348329544067,-0.03924693539738655,0.024662958458065987
1729114999021076000,11.099075927734376,0.7613447308540344,-0.016721943393349648,0.0662769302725792
1729114999054409000,11.132408935546875,0.7534037232398987,0.01901262067258358,0.032603971660137177
1729114999087742000,11.165741943359375,0.7524874806404114,-0.0034360159188508987,0.09651386737823486
1729114999121075200,11.1990751953125,0.751494824886322,-0.00908635277301073,0.09865183383226395
1729114999154408200,11.232408203125,0.7690566778182983,0.028786176815629005,0.005955760832875967
1729114999187741200,11.2657412109375,0.7481352090835571,0.004581354558467865,0.023212196305394173
1729114999221074200,11.29907421875,0.7728744745254517,-0.0067956759594380856,-0.03489464893937111
1729114999254407200,11.3324072265625,0.7651625275611877,0.009620844386518002,-0.07734853774309158
1729114999287740200,11.365740234375,0.7315659523010254,0.0949103906750679,-0.10575293004512787
1729114999321073200,11.3990732421875,0.7755469679832458,0.02038702741265297,-0.18424680829048157
1729114999354406100,11.43240625,0.733169436454773,-0.04291202127933502,-0.12110047042369843
1729114999387739100,11.4657392578125,0.7391251921653748,-0.0050394898280501366,-0.01695101149380207
1729114999421072400,11.499072265625,0.7247702479362488,-0.07528692483901978,-0.006719320081174374
1729114999454405400,11.5324052734375,0.7321004271507263,-0.08002099394798279,0.02695363573729992
1729114999487738400,11.56573828125,0.5996993184089661,-0.011606098152697086,-0.0064902519807219505
1729114999521071400,11.5990712890625,0.49562618136405945,-0.03497100621461868,-0.03955236077308655
1729114999554404400,11.632404296875,0.33504971861839294,-0.03787253051996231,0.020463382825255394
1729114999587737300,11.6657373046875,0.24227729439735413,0.004352286923676729,-0.004123218823224306
1729114999621070300,11.6990703125,0.1650814712047577,0.014125842601060867,-0.0008399150101467967
1729114999654403300,11.7324033203125,0.1621035933494568,-0.04749337583780289,0.00038177953683771193
1729114999687736300,11.765736328125,0.11812258511781693,0.057648710906505585,-0.013285927474498749
1729114999721069600,11.799069580078125,0.07711946964263916,-0.025121092796325684,0.09292513877153397
1729114999754402600,11.832402587890625,0.09735377877950668,-0.06665870547294617,0.07185091078281403
1729114999787735600,11.865735595703125,0.08047912269830704,-0.04199574887752533,0.07146912813186646
1729114999821068500,11.899068603515625,0.05856497958302498,0.07704310864210129,-0.00259610079228878
1729114999854401500,11.932401611328125,0.05978667363524437,0.015194825828075409,0.05963396281003952
1729114999887734500,11.965734619140624,0.07795938104391098,0.014125842601060867,0.04169032722711563
1729114999921067500,11.999067626953124,0.06398624926805496,-0.012293301522731781,0.04306473210453987
1729114999954400500,12.032400390625,0.04489727318286896,-0.0028251686599105597,0.013744063675403595
1729114999987733500,12.0657333984375,0.03420744836330414,0.033443886786699295,0.011911521665751934
1729115000021066800,12.099066650390625,0.02176143415272236,0.023364907130599022,0.00022906772210262716
1729115000054399700,12.132399658203125,0.02710634656250477,0.022524992004036903,-0.020616095513105392
1729115000087732700,12.165732666015625,0.03352024406194687,-0.00030542362947016954,-0.06352811306715012
1729115000121065700,12.199065673828125,0.03237490355968475,-0.0029015245381742716,-0.04107947647571564
1729115000154398700,12.232398681640625,0.020616095513105392,0.01588202826678753,-0.042606595903635025
1729115000187731700,12.265731689453125,0.02008160389959812,0.04650074616074562,-0.029855160042643547
1729115000221064700,12.299064697265624,-0.0008399150101467967,0.061619218438863754,-0.03779617324471474
1729115000254397700,12.332397705078124,0.01916533336043358,0.0293970238417387,-0.031916771084070206
1729115000287730700,12.365730712890626,0.03061871975660324,0.0029015245381742716,-0.013285927474498749
1729115000321064000,12.39906396484375,0.016111096367239952,0.004428642801940441,-0.02764083817601204
1729115000354397000,12.43239697265625,0.012064233422279358,-0.00916270911693573,-0.008093725889921188
1729115000387730000,12.46572998046875,0.007788302376866341,0.009009997360408306,-0.015423892997205257
1729115000421063000,12.49906298828125,-0.012675080448389053,0.01626380905508995,-0.010537114925682545
1729115000454396000,12.53239599609375,0.0032833039294928312,-0.00908635277301073,-0.00030542362947016954
1729115000487729000,12.56572900390625,-0.005650337319821119,-0.008704573847353458,0.007101099472492933
1729115000521062000,12.599061767578124,0.0029778804164379835,-0.013285927474498749,0.008780929259955883
1729115000554395000,12.632394775390624,0.0007635590736754239,-0.020310672000050545,0.015652960166335106
1729115000587728100,12.66572802734375,-0.002672456670552492,-0.03184041380882263,0.020845163613557816
1729115000621061000,12.69906103515625,-0.00022906772210262716,-0.04253023862838745,0.024968381971120834
1729115000654394000,12.73239404296875,-0.0023670331574976444,-0.04650074616074562,0.025731941685080528
1729115000687727000,12.76572705078125,-0.006642963737249374,-0.049860406666994095,0.028404397889971733
1729115000721060000,12.79906005859375,0.0006108472589403391,-0.05405998229980469,0.028098974376916885
1729115000754393000,12.83239306640625,0.004352286923676729,-0.05497625470161438,0.025961007922887802
1729115000787726000,12.86572607421875,-0.0012216945178806782,-0.029626091942191124,0.013973130844533443
1729115000821059000,12.89905908203125,-0.0034360159188508987,0.004810422193259001,-0.002748812548816204
1729115000854392000,12.93239208984375,-0.008551862090826035,0.00916270911693573,-0.003970507066696882
1729115000887725300,12.965725341796874,-0.005268557462841272,-0.0036650835536420345,-0.00015271181473508477
1729115000921058300,12.999058349609374,0.0016798300202935934,0.0010689827613532543,-0.0011453386396169662
1729115000954391300,13.032391357421876,0.0006108472589403391,0.001985253533348441,-0.0018325417768210173
1729115000987724300,13.065724365234376,-0.003359660040587187,-0.00038177953683771193,-0.0008399150101467967
1729115001021057300,13.099057373046875,-0.000687203137204051,0.0011453386396169662,-0.0009162708884105086
1729115001054390300,13.132390380859375,-0.0018325417768210173,0.0011453386396169662,-0.001985253533348441
1729115001087723300,13.16572314453125,-0.0035887276753783226,0.00007635590736754239,-0.0006108472589403391
1729115001121056300,13.19905615234375,-0.0029778804164379835,-0.00015271181473508477,-0.0004581354442052543
1729115001154389200,13.23238916015625,-0.003359660040587187,-0.00022906772210262716,-0.000687203137204051
1729115001187722500,13.265722412109374,-0.004963133949786425,-0.0007635590736754239,0.00038177953683771193
1729115001221055500,13.299055419921874,-0.006261184345930815,-0.0006108472589403391,0.00022906772210262716
1729115001254388500,13.332388427734376,-0.004275931045413017,-0.0007635590736754239,0.00038177953683771193
1729115001287721500,13.365721435546876,-0.010613471269607544,0.0005344913806766272,-0.0008399150101467967
1729115001321054500,13.399054443359375,-0.05864133685827255,0.016798298805952072,-0.005497625097632408
1729115001354387500,13.432387451171875,-0.11086877435445786,-0.004504998680204153,0.0029778804164379835
1729115001387720400,13.465720458984375,-0.14492350816726685,-0.0050394898280501366,-0.005879404954612255
1729115001421053400,13.499053466796875,-0.2683146595954895,-0.028404397889971733,0.014507622458040714
1729115001454386400,13.532386474609375,-0.5110501050949097,0.008780929259955883,-0.001374406274408102
1729115001487719700,13.5657197265625,-0.8128849864006042,0.033443886786699295,-0.013896775431931019
1729115001521052700,13.599052734375,-1.158700942993164,0.02886253222823143,0.0009926267666742206
1729115001554385700,13.6323857421875,-1.513068675994873,-0.03855973482131958,0.03229855000972748
1729115001587718700,13.66571875,-1.8278840780258179,-0.024128466844558716,0.015042114071547985
1729115001621051600,13.6990517578125,-2.116509437561035,-0.0004581354442052543,0.009239064529538155
1729115001654384600,13.732384521484375,-2.325342893600464,0.01046075951308012,-0.0050394898280501366
1729115001687717600,13.765717529296875,-2.453620672225952,0.02160872146487236,0.002748812548816204
1729115001721050600,13.799050537109375,-2.5247080326080322,0.03512371703982353,0.016111096367239952
1729115001754383600,13.832383544921875,-2.5640313625335693,0.02283041551709175,0.015805672854185104
1729115001787716900,13.865716796875,-2.557006597518921,0.02283041551709175,0.014736690558493137
1729115001821049900,13.8990498046875,-2.496990919113159,0.01794363744556904,0.008170082233846188
1729115001854382800,13.9323828125,-2.4062037467956543,0.006108472589403391,0.013362283818423748
1729115001887715800,13.9657158203125,-2.2948005199432373,0.005497625097632408,0.017332790419459343
1729115001921048800,13.999048828125,-2.1914145946502686,0.009009997360408306,0.016340164467692375
1729115001954381800,14.0323818359375,-2.0820729732513428,0.02176143415272236,0.010613471269607544
1729115001987714800,14.06571484375,-2.0025863647460938,-0.0010689827613532543,0.019623467698693275
1729115002021047800,14.0990478515625,-1.9455485343933105,-0.007635590620338917,0.025502873584628105
1729115002054380800,14.132380859375,-1.9163042306900024,0.0022906772792339325,0.011300674639642239
1729115002087714000,14.165714111328125,-1.916456937789917,0.0008399150101467967,0.012980503961443901
1729115002121047000,14.199047119140625,-1.9272230863571167,-0.005268557462841272,0.013667707331478596
1729115002154380000,14.232380126953124,-1.9724258184432983,0.026190076023340225,0.01046075951308012
1729115002187713000,14.265713134765624,-2.0163304805755615,-0.012751436792314053,0.020692450925707817
1729115002221046000,14.2990458984375,-2.071230411529541,-0.008551862090826035,0.01779092662036419
1729115002254379000,14.33237890625,-2.112004280090332,-0.012980503961443901,0.018707197159528732
1729115002287712000,14.3657119140625,-2.1307878494262695,0.005573981441557407,0.01817270554602146
1729115002321045000,14.399044921875,-2.14766263961792,-0.004734066314995289,0.007177455350756645
1729115002354378000,14.4323779296875,-2.1267411708831787,0.01122431829571724,0.012216945178806782
1729115002387711200,14.465711181640625,-2.127351999282837,0.000687203137204051,0.005726693198084831
1729115002421044200,14.499044189453125,-2.0806221961975098,0.00992626789957285,0.00259610079228878
1729115002454377200,14.532377197265625,-2.0795531272888184,0.02145601063966751,0.0009162708884105086
1729115002487710200,14.565710205078124,-2.0971150398254395,0.010537114925682545,0.0051158457063138485
1729115002521043200,14.599043212890624,-2.1235342025756836,0.002748812548816204,0.009391776286065578
1729115002554376200,14.632376220703126,-2.128420829772949,0.01748550310730934,-0.0067956759594380856
1729115002587709200,14.665709228515626,-2.148960590362549,0.012293301522731781,0.015423892997205257
1729115002621042200,14.699042236328125,-2.192483425140381,0.008933641016483307,0.018783552572131157
1729115002654375200,14.732375244140625,-2.224858522415161,0.010308047756552696,0.016645587980747223
1729115002687708400,14.76570849609375,-2.2547898292541504,0.014507622458040714,0.015652960166335106
1729115002721041400,14.79904150390625,-2.2469253540039062,0.010995250195264816,0.01588202826678753
1729115002754374400,14.83237451171875,-2.2366936206817627,0.0036650835536420345,0.025350160896778107
1729115002787707400,14.865707275390625,-2.2201242446899414,0.011300674639642239,0.018249060958623886
1729115002821040400,14.899040283203124,-2.21065616607666,0.021150587126612663,0.016874656081199646
1729115002854373400,14.932373291015624,-2.1789684295654297,0.008551862090826035,0.013133215717971325
1729115002887706400,14.965706298828126,-2.173776388168335,0.004734066314995289,0.015423892997205257
1729115002921039400,14.999039306640626,-2.159726858139038,-0.00259610079228878,0.020845163613557816
1729115002954372600,15.03237255859375,-2.1236867904663086,-0.01435491070151329,0.014431266114115715
1729115002987705600,15.06570556640625,-2.0616095066070557,0.007024743594229221,0.005421269219368696
1729115003021038600,15.09903857421875,-2.00449538230896,-0.018630841746926308,0.011453386396169662
1729115003054371600,15.13237158203125,-1.912410020828247,-0.010308047756552696,0.01038440316915512
1729115003087704600,15.16570458984375,-1.8249062299728394,-0.01046075951308012,0.011606098152697086
1729115003121037600,15.19903759765625,-1.7576366662979126,0.023059483617544174,-0.022601349279284477
1729115003154370600,15.23237060546875,-1.7295376062393188,0.000687203137204051,-0.010078979656100273
1729115003187703600,15.26570361328125,-1.7208330631256104,0.015958385542035103,-0.007941014133393764
1729115003221036500,15.29903662109375,-1.6628789901733398,0.01626380905508995,-0.004581354558467865
1729115003254369800,15.332369873046876,-1.4631319046020508,-0.012140588834881783,0.008246437646448612
1729115003287702800,15.365702880859375,-1.0289721488952637,0.02664821222424507,-0.016798298805952072
1729115003321035800,15.399035888671875,-0.5291464328765869,0.006032116711139679,-0.007559234742075205
1729115003354368800,15.43236865234375,-0.0823880210518837,0.018019994720816612,-0.010689826682209969
1729115003387701800,15.46570166015625,0.09857547283172607,0.0029778804164379835,0.011682453565299511
1729115003421034800,15.49903466796875,0.018936265259981155,0.018096350133419037,-0.008780929259955883
1729115003454367700,15.53236767578125,-0.04359922185540199,-0.003970507066696882,0.00786465872079134
1729115003487700700,15.56570068359375,0.006719320081174374,-0.021226942539215088,0.012369656935334206
1729115003521033700,15.59903369140625,0.020616095513105392,-0.005421269219368696,0.005344913341104984
1729115003554367000,15.632366943359376,-0.019394399598240852,0.00015271181473508477,0.005268557462841272
1729115003587700000,15.665699951171876,-0.014431266114115715,-0.01175880990922451,0.005573981441557407
1729115003621033000,15.699032958984375,-0.0017561858985573053,-0.005421269219368696,0.0034360159188508987
1729115003654366000,15.732365966796875,-0.0037414394319057465,0.0004581354442052543,0.0005344913806766272
1729115003687699000,15.765698974609375,-0.00519220158457756,-0.0024433890357613564,0.0009926267666742206
1729115003721032000,15.799031982421875,-0.0005344913806766272,0.00038177953683771193,0.00015271181473508477
1729115003754365000,15.832364990234375,0.001374406274408102,0.0007635590736754239,-0.00129805039614439
1729115003787698000,15.865697998046874,-0.0007635590736754239,-0.0007635590736754239,-0.00022906772210262716
1729115003821031000,15.899031005859374,-0.00030542362947016954,0.0006108472589403391,-0.000687203137204051
1729115003854364200,15.9323642578125,0.00015271181473508477,0.0004581354442052543,-0.0004581354442052543
1729115003887697200,15.965697265625,0,0.0004581354442052543,-0.00022906772210262716
1729115003921030100,15.999030029296875,0.0009926267666742206,-0.00015271181473508477,-0.0007635590736754239
1729115003954363100,16.032363037109373,-0.00015271181473508477,0,0.00038177953683771193
1729115003987696000,16.065696044921875,-0.00015271181473508477,0.00007635590736754239,0.00007635590736754239
1729115004021029000,16.099029052734377,0.0004581354442052543,-0.0006108472589403391,-0.00022906772210262716
1729115004054362000,16.132362060546875,0.00038177953683771193,-0.00015271181473508477,-0.00022906772210262716
1729115004087695000,16.165695068359376,-0.00015271181473508477,-0.000687203137204051,-0.00022906772210262716
1729115004121028000,16.199028076171874,0.00015271181473508477,-0.00015271181473508477,-0.00022906772210262716
1729115004154361300,16.232361328125,-0.00015271181473508477,-0.00015271181473508477,0
1729115004187694300,16.2656943359375,-0.00015271181473508477,-0.00007635590736754239,-0.00015271181473508477
1729115004221027300,16.29902734375,-0.00015271181473508477,-0.0004581354442052543,-0.00007635590736754239
1729115004254360300,16.3323603515625,-0.00038177953683771193,0.00007635590736754239,0.00007635590736754239
1729115004287693300,16.365693359375,-0.00015271181473508477,-0.00015271181473508477,0.00038177953683771193
1729115004321026300,16.3990263671875,-0.0006108472589403391,-0.00015271181473508477,-0.00015271181473508477
1729115004354359300,16.432359375,-0.00007635590736754239,-0.00015271181473508477,0.00038177953683771193
1729115004387692300,16.4656923828125,-0.0007635590736754239,0.00007635590736754239,-0.00022906772210262716
1729115004421025300,16.499025390625,-0.00015271181473508477,-0.00015271181473508477,0.00015271181473508477
1729115004454358500,16.532358642578124,-0.00015271181473508477,0.00038177953683771193,-0.00022906772210262716
1729115004487691500,16.56569140625,-0.00015271181473508477,-0.000687203137204051,-0.00022906772210262716
1729115004521024500,16.5990244140625,-0.00038177953683771193,-0.00015271181473508477,-0.00022906772210262716
1729115004554357500,16.632357421875,-0.00015271181473508477,-0.00007635590736754239,0.000687203137204051
1729115004587690500,16.6656904296875,-0.00030542362947016954,-0.0015271181473508477,0.0015271181473508477
1729115004621023500,16.6990234375,0.00038177953683771193,-0.001985253533348441,0.0021379655227065086
1729115004654356500,16.7323564453125,-0.0008399150101467967,-0.0036650835536420345,0.0032069480512291193
1729115004687689500,16.765689453125,-0.0029015245381742716,-0.0038941511884331703,0.0011453386396169662
1729115004721022500,16.7990224609375,-0.0068720318377017975,0.0038177953101694584,-0.005650337319821119
1729115004754355700,16.832355712890624,-0.021303297951817513,0.009544488042593002,-0.008170082233846188
1729115004787688700,16.865688720703126,-0.023975754156708717,0.007635590620338917,-0.007711946498602629
1729115004821021700,16.899021728515624,-0.026342788711190224,0.007482878863811493,-0.011300674639642239
1729115004854354700,16.932354736328126,-0.032603971660137177,0.008246437646448612,-0.012751436792314053
1729115004887687700,16.965687744140624,-0.04230117425322533,0.0010689827613532543,-0.00992626789957285
1729115004921020700,16.999020751953125,-0.03558185324072838,-0.0004581354442052543,-0.004123218823224306
1729115004954353700,17.032353759765623,-0.04611896723508835,-0.0035123717971146107,-0.00916270911693573
1729115004987686700,17.065686767578125,-0.061619218438863754,0.0007635590736754239,-0.012446013279259205
1729115005021019600,17.09901953125,-0.06459710001945496,-0.004352286923676729,-0.006413896102458239
1729115005054353000,17.132352783203125,-0.04550812020897865,0.0031305921729654074,-0.007253811229020357
1729115005087686000,17.165685791015626,-0.0653606578707695,-0.0006108472589403391,-0.0032069480512291193
1729115005121019000,17.199018798828124,-0.09277242422103882,-0.01046075951308012,0.0021379655227065086
1729115005154351900,17.232351806640626,-0.09743013978004456,0.005497625097632408,-0.03626905754208565
1729115005187684900,17.265684814453124,-0.09674293547868729,-0.011529741808772087,-0.03474193811416626
1729115005221017900,17.299017822265625,-0.08406785130500793,0.004046862944960594,-0.0165692325681448
1729115005254350800,17.332350830078123,-0.09093988686800003,0.0009926267666742206,-0.000687203137204051
1729115005287683800,17.365683837890625,-0.10308047384023666,-0.003359660040587187,0.03634541109204292
1729115005321017000,17.39901708984375,-0.09345962852239609,0.03665083646774292,-0.005955760832875967
1729115005354350000,17.43235009765625,-0.08849649876356125,0.06711684167385101,0.03290939703583717
1729115005387683000,17.46568310546875,-0.10392039269208908,-0.0164165198802948,0.03817795217037201
1729115005421016000,17.49901611328125,-0.11720632016658783,-0.01763821393251419,0.05047125369310379
1729115005454349000,17.53234912109375,-0.10705098509788513,-0.012751436792314053,-0.03336753323674202
1729115005487682000,17.56568212890625,-0.09399411827325821,0.04428642615675926,0.03558185324072838
1729115005521015000,17.59901513671875,-0.11545012891292572,-0.03451287001371384,0.015805672854185104
1729115005554348000,17.63234814453125,-0.14522893726825714,-0.027029991149902344,0.10201149433851242
1729115005587681000,17.665680908203125,-0.06131379306316376,-0.007253811229020357,-0.0364217683672905
1729115005621014300,17.69901416015625,-0.01626380905508995,0.0029015245381742716,0.04665346071124077
1729115005654347300,17.73234716796875,0.0528382882475853,0.005650337319821119,-0.007330167107284069
1729115005687680300,17.76568017578125,-0.008170082233846188,0.020005248486995697,0.00916270911693573
1729115005721013200,17.79901318359375,-0.03871244564652443,-0.043141089379787445,0.012140588834881783
1729115005754346200,17.83234619140625,0.047798797488212585,-0.0016034740256145597,0.03749075159430504
1729115005787679200,17.86567919921875,0.21425467729568481,0.05276193097233772,0.006337540224194527
1729115005821012200,17.89901220703125,0.35917818546295166,0.08559497445821762,0.05329642444849014
1729115005854345200,17.93234521484375,0.5918346643447876,0.05963396281003952,-0.04497363045811653
1729115005887678200,17.96567822265625,0.8221240639686584,0.1328592747449875,-0.01779092662036419
1729115005921011500,17.999011474609375,0.9074136018753052,0.23212195932865143,-0.12262758612632751
1729115005954344400,18.032344482421873,1.0133955478668213,0.2651077210903168,-0.12499462068080902
1729115005987677400,18.065677490234375,1.0925003290176392,0.11590826511383057,-0.06055023521184921
1729115006021010400,18.099010498046876,1.2169604301452637,0.12812520563602448,-0.07345438003540039
1729115006054343400,18.132343505859374,1.2507097721099854,0.15782766044139862,-0.1579040139913559
1729115006087676400,18.165676513671876,1.3057624101638794,0.21677441895008087,-0.0755159929394722
1729115006121009400,18.199009521484374,1.2953779697418213,0.2187596708536148,-0.10246963053941727
1729115006154342400,18.23234228515625,1.3705885410308838,-0.05016583204269409,-0.10552386194467545
1729115006187675400,18.26567529296875,1.3744826316833496,-0.04756972938776016,-0.11949699372053146
1729115006221008600,18.299008544921875,1.309122085571289,0.06810946762561798,-0.09307785332202911
1729115006254341600,18.332341552734373,1.239332675933838,0.026037365198135376,-0.1346154659986496
1729115006287674600,18.365674560546875,1.1212100982666016,-0.06788039952516556,-0.08200624585151672
1729115006321007600,18.399007568359377,1.0071344375610352,-0.01572931744158268,-0.04688252881169319
1729115006354340600,18.432340576171875,0.8531245589256287,-0.0034360159188508987,-0.05154023692011833
1729115006387673600,18.465673583984376,0.6700230836868286,-0.04772244393825531,-0.02008160389959812
1729115006421006600,18.499006591796874,0.5049416422843933,-0.13904410600662231,-0.04978405311703682
1729115006454339600,18.532339599609376,0.4080459773540497,-0.17317520081996918,0.0024433890357613564
1729115006487672600,18.565672607421874,0.3239017724990845,-0.20005246996879578,0.030542362481355667
1729115006521005800,18.599005859375,0.26785650849342346,-0.2480039894580841,0.07169819623231888
1729115006554338800,18.6323388671875,0.21791976690292358,-0.3500918447971344,0.126216322183609
1729115006587671800,18.665671875,0.18974442780017853,-0.36902809143066406,0.1274380087852478
1729115006621004800,18.6990048828125,0.1205659806728363,-0.10758547484874725,0.05207473039627075
1729115006654337800,18.732337890625,0.05329642444849014,0.07780666649341583,0.10262233763933182
1729115006687670800,18.7656708984375,-0.025502873584628105,0.016874656081199646,-0.013591351918876171
1729115006721003800,18.799003662109374,-0.11552648991346359,0.009697199799120426,0.01511846948415041
1729115006754336800,18.832336669921876,-0.19883078336715698,-0.04107947647571564,0.009849912486970425
1729115006787669800,18.865669677734374,-0.28580015897750854,0.0331384651362896,0.02870982140302658
1729115006821003000,18.8990029296875,-0.3578801453113556,0.008093725889921188,-0.10972344130277634
1729115006854336000,18.9323359375,-0.42927291989326477,-0.031076854094862938,-0.03703261539340019
1729115006887669000,18.9656689453125,-0.5327351689338684,-0.01901262067258358,-0.07605048269033432
1729115006921002000,18.999001953125,-0.6631510257720947,-0.02145601063966751,-0.139960378408432
1729115006954335000,19.0323349609375,-0.8287670016288757,-0.04443913698196411,-0.023975754156708717
1729115006987668000,19.06566796875,-0.9512419104576111,0.00786465872079134,-0.06314633786678314
1729115007021001000,19.0990009765625,-1.1360995769500732,0.010613471269607544,-0.02993151545524597
1729115007054334000,19.132333984375,-1.2561310529708862,-0.008170082233846188,0.01382041908800602
1729115007087667000,19.1656669921875,-1.3563863039016724,-0.03825430944561958,0.05024218559265137
1729115007121000200,19.199000244140624,-1.437628984451294,-0.014965757727622986,-0.008780929259955883
1729115007154333200,19.232333251953126,-1.4793957471847534,-0.04688252881169319,0.04352286830544472
1729115007187666200,19.265666259765624,-1.4822208881378174,-0.07864658534526825,0.0489441379904747
1729115007220999200,19.298999267578125,-1.4626737833023071,-0.10697462409734726,-0.09666658192873001
1729115007254332200,19.332332275390623,-1.4364073276519775,-0.1005607321858406,0.06200099736452103
1729115007287665200,19.3656650390625,-1.3678396940231323,-0.1417929232120514,0.06360447406768799
1729115007320998100,19.398998046875,-1.2959887981414795,-0.18126893043518066,0.0011453386396169662
1729115007354331100,19.4323310546875,-1.2019946575164795,-0.2984752357006073,-0.0752105712890625
1729115007387664100,19.4656640625,-1.0748621225357056,-0.31176117062568665,-0.06742226332426071
1729115007420997400,19.498997314453124,-0.9574267268180847,-0.0859767496585846,-0.0877329409122467
1729115007454330400,19.532330322265626,-0.8783983588218689,0.03436015918850899,-0.18394137918949127
1729115007487663400,19.565663330078124,-0.6574243903160095,0.08681666851043701,0.010613471269607544
1729115007520996400,19.598996337890625,-0.49226653575897217,0.09956810623407364,0.06704048812389374
1729115007554329300,19.632329345703123,-0.26548948884010315,0.15217731893062592,-0.053830914199352264
1729115007587662300,19.665662353515625,-0.1328592747449875,0.23914669454097748,0.08887827396392822
1729115007620995300,19.698995361328127,-0.07658497244119644,0.2919849753379822,0.03130592033267021
1729115007654328300,19.732328369140625,-0.056808795779943466,0.4789806008338928,0.08628217875957489
1729115007687661600,19.76566162109375,-0.14095300436019897,0.453095942735672,-0.11277767270803452
1729115007720994600,19.79899462890625,-0.17661121487617493,0.12339114397764206,-0.08047912269830704
1729115007754327600,19.83232763671875,-0.026877280324697495,-0.07795938104391098,-0.072232685983181
1729115007787660500,19.86566064453125,-0.016187451779842377,-0.1949366331100464,-0.06154286116361618
1729115007820993500,19.89899365234375,0.0065666078589856625,-0.049707695841789246,0.06734590977430344
1729115007854326500,19.932326416015623,0.051922015845775604,-0.015347537584602833,-0.08269345015287399
1729115007887659500,19.965659423828125,-0.02160872146487236,0.08574768155813217,-0.015271181240677834
1729115007920992500,19.998992431640627,-0.05085303261876106,0.06765133142471313,0.0683385357260704
1729115007954325500,20.032325439453125,-0.02176143415272236,-0.06429167091846466,0.029626091942191124
1729115007987658800,20.06565869140625,-0.03184041380882263,0.02008160389959812,0.029626091942191124
1729115008020991700,20.09899169921875,-0.14767232537269592,-0.04558447748422623,0.0130568603053689
1729115008054324700,20.13232470703125,-0.24258272349834442,0.005268557462841272,0.06933116167783737
1729115008087657700,20.16565771484375,-0.3115321099758148,0.06917845457792282,0.009697199799120426
1729115008120990700,20.19899072265625,-0.4375956952571869,0.0005344913806766272,0.04283566400408745
1729115008154323700,20.23232373046875,-0.4186594486236572,-0.04046862944960594,0.0420721061527729
1729115008187656700,20.26565673828125,-0.3399364948272705,0.06872031837701797,-0.032069481909275055
1729115008220989700,20.29898974609375,-0.3019876182079315,0.051922015845775604,0.02504473738372326
1729115008254322700,20.33232275390625,-0.21623992919921875,0.0028251686599105597,0.0031305921729654074
1729115008287656000,20.365656005859375,-0.1375933438539505,0.049860406666994095,0.016798298805952072
1729115008320989000,20.398989013671876,-0.14576342701911926,0.03825430944561958,0.059175826609134674
1729115008354322000,20.432322021484374,-0.08765657991170883,-0.002061609411612153,0.005803049076348543
1729115008387655000,20.465655029296876,-0.07024743407964706,0.02542651630938053,0.009009997360408306
1729115008420988000,20.49898779296875,-0.05215108394622803,-0.025350160896778107,-0.027259059250354767
1729115008454321000,20.53232080078125,-0.04375193640589714,0.022677704691886902,0.031000498682260513
1729115008487654000,20.56565380859375,-0.03817795217037201,0.021837789565324783,-0.08987089991569519
1729115008520987000,20.59898681640625,-0.06131379306316376,0.018401773646473885,0.013514995574951172
1729115008554320000,20.63231982421875,-0.029091600328683853,-0.030313294380903244,-0.030695075169205666
1729115008587653000,20.665653076171875,-0.030313294380903244,0.04153761267662048,-0.00992626789957285
1729115008620986000,20.698986083984376,-0.03214583545923233,0.02229592576622963,-0.026724567636847496
1729115008654319000,20.732319091796874,-0.02435753494501114,0.009391776286065578,0.006413896102458239
1729115008687652000,20.765652099609376,-0.029091600328683853,0.0065666078589856625,0.0010689827613532543
1729115008720985000,20.798985107421874,-0.006032116711139679,-0.032603971660137177,0.05062396824359894
1729115008754318000,20.832318115234376,0.01038440316915512,-0.09177979826927185,-0.01122431829571724
1729115008787651000,20.865651123046874,-0.00862821750342846,0.011682453565299511,0.03993413969874382
1729115008820984000,20.898984130859375,-0.014660334214568138,0.005497625097632408,0.006184828467667103
1729115008854317000,20.932317138671873,-0.0051158457063138485,-0.03382566571235657,0.0016034740256145597
1729115008887650300,20.965650390625,-0.00030542362947016954,-0.01710372418165207,0.0328330397605896
1729115008920983300,20.9989833984375,-0.017867282032966614,0.0068720318377017975,0.007101099472492933
1729115008954316300,21.03231640625,0.0011453386396169662,-0.004657710436731577,0.00908635277301073
1729115008987649300,21.065649169921876,-0.004428642801940441,0.0008399150101467967,0.005803049076348543
1729115009020982300,21.098982177734374,-0.001374406274408102,-0.005803049076348543,0.008933641016483307
1729115009054315300,21.132315185546876,0.01038440316915512,-0.013209572061896324,0.0030542362947016954
1729115009087648300,21.165648193359374,0.0031305921729654074,-0.0037414394319057465,0.0028251686599105597
1729115009120981200,21.198981201171875,-0.005955760832875967,0.0012216945178806782,0.005803049076348543
1729115009154314200,21.232314208984373,-0.011911521665751934,-0.001374406274408102,0.004428642801940441
1729115009187647500,21.2656474609375,0.003970507066696882,-0.005268557462841272,0.0035887276753783226
1729115009220980500,21.29898046875,0.009620844386518002,0.0038941511884331703,0.001985253533348441
1729115009254313500,21.3323134765625,-0.010918894782662392,0.0010689827613532543,0.002748812548816204
1729115009287646500,21.365646484375,-0.004581354558467865,-0.008017370477318764,0.0010689827613532543
1729115009320979500,21.3989794921875,0.00007635590736754239,0.00015271181473508477,0.0012216945178806782
1729115009354312400,21.4323125,0.0032069480512291193,0.001985253533348441,0.00015271181473508477
1729115009387645400,21.4656455078125,0.0024433890357613564,0.00015271181473508477,-0.00022906772210262716
1729115009420978400,21.498978515625,-0.005650337319821119,0.0022906772792339325,0.00038177953683771193
1729115009454311400,21.5323115234375,-0.011606098152697086,0.001374406274408102,-0.0004581354442052543
1729115009487644700,21.565644775390624,0.0021379655227065086,0.001374406274408102,-0.0010689827613532543
1729115009520977700,21.598977783203125,0.003359660040587187,0.0010689827613532543,-0.0016798300202935934
1729115009554310700,21.632310546875,-0.0007635590736754239,0.0004581354442052543,-0.0007635590736754239
1729115009587643600,21.6656435546875,0.0019088976550847292,0,-0.00022906772210262716
1729115009620976600,21.6989765625,0.0016798300202935934,-0.00007635590736754239,-0.0008399150101467967
1729115009654309600,21.7323095703125,0.0010689827613532543,-0.00015271181473508477,-0.0006108472589403391
1729115009687642600,21.765642578125,0.00038177953683771193,-0.000687203137204051,-0.00022906772210262716
1729115009720975600,21.7989755859375,-0.00015271181473508477,-0.00007635590736754239,-0.00022906772210262716
1729115009754308600,21.83230859375,0.00015271181473508477,-0.0005344913806766272,-0.00022906772210262716
1729115009787641900,21.865641845703124,0,0.00022906772210262716,-0.00022906772210262716
1729115009820974800,21.898974853515625,-0.0007635590736754239,-0.000687203137204051,-0.00022906772210262716
1729115009854307800,21.932307861328123,0.00038177953683771193,0.00038177953683771193,-0.00022906772210262716
1729115009887640800,21.965640869140625,0.0008399150101467967,-0.00015271181473508477,-0.00022906772210262716
1729115009920973800,21.998973876953126,0.005573981441557407,-0.0007635590736754239,0.0008399150101467967
1729115009954306800,22.032306884765624,0.009009997360408306,-0.00129805039614439,-0.00022906772210262716
1729115009987639800,22.065639892578126,0.011682453565299511,-0.0007635590736754239,-0.00022906772210262716
1729115010020972800,22.098972900390624,0.03145863488316536,0.000687203137204051,0
1729115010054305800,22.132305908203126,0.07437065243721008,-0.00259610079228878,-0.0005344913806766272
1729115010087639000,22.16563916015625,0.11781716346740723,0.005421269219368696,-0.00030542362947016954
1729115010120972000,22.198971923828125,0.15263545513153076,0.0010689827613532543,-0.001374406274408102
1729115010154305000,22.232304931640623,0.27091076970100403,0.008780929259955883,-0.0018325417768210173
1729115010187638000,22.265637939453125,0.49921491742134094,0.008933641016483307,-0.008322793990373611
1729115010220971000,22.298970947265627,0.7812736630439758,0,-0.013973130844533443
1729115010254304000,22.332303955078125,0.7718818783760071,0.019623467698693275,0.0022143214009702206
1729115010287637000,22.365636962890626,0.7997517585754395,0.016340164467692375,-0.020310672000050545
1729115010320970000,22.398969970703124,0.776692271232605,0.002061609411612153,-0.0051158457063138485
1729115010354303200,22.43230322265625,0.9331455230712891,0.012369656935334206,-0.017027366906404495
1729115010387636200,22.46563623046875,1.2249778509140015,-0.001985253533348441,-0.019623467698693275
1729115010420969200,22.49896923828125,1.5572787523269653,-0.00129805039614439,-0.02680092304944992
1729115010454302200,22.53230224609375,1.8637713193893433,0.012904148548841476,-0.040392275899648666
1729115010487635200,22.56563525390625,2.116356611251831,-0.001985253533348441,-0.035352785140275955
1729115010520968200,22.59896826171875,2.3286261558532715,-0.023364907130599022,-0.03443651273846626
1729115010554301200,22.63230126953125,2.4956164360046387,-0.01954711228609085,-0.03962871432304382
1729115010587634200,22.66563427734375,2.60213303565979,-0.016187451779842377,-0.03405473381280899
1729115010620967200,22.69896728515625,2.692767381668091,-0.015576604753732681,-0.03214583545923233
1729115010654300400,22.732300537109374,2.7584335803985596,-0.00259610079228878,-0.031534988433122635
1729115010687633400,22.76563330078125,2.7810349464416504,0.00129805039614439,-0.03161134570837021
1729115010720966400,22.79896630859375,2.789128541946411,-0.007101099472492933,-0.04695888236165047
1729115010754299400,22.83229931640625,2.7568299770355225,-0.0165692325681448,-0.023288551717996597
1729115010787632400,22.86563232421875,2.662606954574585,-0.015500249341130257,-0.04428642615675926
1729115010820965400,22.89896533203125,2.573423147201538,-0.011071606539189816,-0.034283801913261414
1729115010854298400,22.93229833984375,2.4884390830993652,-0.016721943393349648,-0.03290939703583717
1729115010887631400,22.96563134765625,2.4226202964782715,-0.03199312463402748,-0.025273805484175682
1729115010920964400,22.99896435546875,2.3989498615264893,-0.009239064529538155,-0.023899398744106293
1729115010954297600,23.032297607421874,2.435753345489502,-0.027182703837752342,-0.045889899134635925
1729115010987630600,23.065630615234376,2.4751532077789307,-0.057801421731710434,0.007635590620338917
1729115011020963600,23.098963623046874,2.5202794075012207,-0.04695888236165047,-0.00908635277301073
1729115011054296600,23.132296630859376,2.5868618488311768,-0.007253811229020357,-0.017027366906404495
1729115011087629600,23.165629638671874,2.5912904739379883,0.0023670331574976444,-0.010155336000025272
1729115011120962600,23.198962646484375,2.595184564590454,0.003970507066696882,-0.01817270554602146
1729115011154295600,23.232295654296873,2.601140260696411,0.0004581354442052543,-0.007024743594229221
1729115011187628500,23.265628662109375,2.6055688858032227,-0.018707197159528732,-0.043293800204992294
1729115011220961500,23.29896142578125,2.6331334114074707,0.0014507622690871358,-0.022524992004036903
1729115011254294800,23.332294677734374,2.6338207721710205,-0.0035123717971146107,-0.035352785140275955
1729115011287627800,23.365627685546876,2.6386311054229736,-0.010918894782662392,-0.023975754156708717
1729115011320960800,23.398960693359374,2.638707399368286,-0.021303297951817513,-0.024586603045463562
1729115011354293800,23.432293701171876,2.59808611869812,0.010537114925682545,-0.005497625097632408
1729115011387626800,23.465626708984374,2.5825858116149902,0.020845163613557816,-0.03817795217037201
1729115011420959700,23.498959716796875,2.5796079635620117,0.021303297951817513,-0.042606595903635025
1729115011454292700,23.532292724609373,2.5579991340637207,0.07291989028453827,-0.034818295389413834
1729115011487625700,23.565625732421875,2.463623285293579,0.03306210786104202,-0.047646086663007736
1729115011520958700,23.598958740234377,2.220811605453491,-0.030160583555698395,0
1729115011554292000,23.6322919921875,1.7810015678405762,0.015500249341130257,-0.009239064529538155
1729115011587625000,23.665625,1.1326634883880615,0.009468132629990578,-0.004581354558467865
1729115011620958000,23.6989580078125,0.5050179958343506,-0.006948387715965509,-0.006184828467667103
1729115011654291000,23.732291015625,0.06742226332426071,0.025808297097682953,-0.008933641016483307
1729115011687624000,23.7656240234375,-0.0925433561205864,-0.004199574701488018,-0.0032833039294928312
1729115011720957000,23.79895703125,-0.04092676565051079,0.007559234742075205,-0.00038177953683771193
1729115011754290000,23.8322900390625,0.03558185324072838,0.009544488042593002,-0.008704573847353458
1729115011787623000,23.865622802734375,-0.0012216945178806782,0.0015271181473508477,-0.0028251686599105597
1729115011820956000,23.898955810546877,-0.013209572061896324,0.004123218823224306,-0.006108472589403391
1729115011854289200,23.9322890625,0.008322793990373611,0.007406522985547781,-0.003359660040587187
1729115011887622100,23.9656220703125,0.005726693198084831,0.005879404954612255,-0.002061609411612153
1729115011920955100,23.998955078125,0.000687203137204051,0.0022906772792339325,0.00030542362947016954
1729115011954288000,24.0322880859375,-0.00030542362947016954,-0.0024433890357613564,0.0035123717971146107
1729115011987621000,24.06562109375,0.0068720318377017975,-0.0028251686599105597,0.0006108472589403391
1729115012020954000,24.0989541015625,0.010078979656100273,0.0018325417768210173,-0.0008399150101467967
1729115012054287000,24.132287109375,-0.006642963737249374,0.001985253533348441,-0.00129805039614439
1729115012087620000,24.1656201171875,-0.0015271181473508477,-0.0009926267666742206,0.0007635590736754239
1729115012120953000,24.198953125,0.0038941511884331703,0.00007635590736754239,0.0006108472589403391
1729115012154286300,24.232286376953127,-0.0014507622690871358,-0.00030542362947016954,0.0005344913806766272
1729115012187619300,24.265619384765625,0.00007635590736754239,-0.0019088976550847292,0.0011453386396169662
1729115012220952300,24.298952392578126,0.0011453386396169662,-0.00038177953683771193,0
1729115012254285300,24.332285400390624,-0.0011453386396169662,0,0.00015271181473508477
1729115012287618300,24.365618408203126,0.0010689827613532543,-0.00015271181473508477,-0.00022906772210262716
1729115012320951300,24.398951416015624,-0.00007635590736754239,0.00038177953683771193,-0.0007635590736754239
1729115012354284300,24.4322841796875,0,0.00022906772210262716,-0.0006108472589403391
1729115012387617300,24.4656171875,-0.00030542362947016954,0.00022906772210262716,-0.00022906772210262716
1729115012420950300,24.4989501953125,-0.0012216945178806782,-0.00015271181473508477,-0.00022906772210262716
1729115012454283500,24.532283447265623,0.00038177953683771193,0.00038177953683771193,-0.0007635590736754239
1729115012487616500,24.565616455078125,-0.0006108472589403391,-0.0006108472589403391,0
1729115012520949500,24.598949462890626,-0.0005344913806766272,-0.00015271181473508477,-0.0004581354442052543
1729115012554282500,24.632282470703124,-0.00007635590736754239,-0.00015271181473508477,-0.00007635590736754239
1729115012587615500,24.665615478515626,0.0004581354442052543,0.0009926267666742206,0.00038177953683771193
1729115012620949500,24.698949462890624,0,0,-0.0006108472589403391
1729115012654282500,24.732282470703126,0.0004581354442052543,0.00015271181473508477,-0.00022906772210262716
1729115012687615500,24.765615478515624,-0.00015271181473508477,0.00030542362947016954,-0.00022906772210262716
1729115012720948500,24.798948486328126,-0.00015271181473508477,0.0004581354442052543,-0.00022906772210262716
1729115012754281700,24.83228173828125,-0.00015271181473508477,0.00015271181473508477,0
1729115012787614700,24.86561474609375,-0.0004581354442052543,0.00015271181473508477,-0.0008399150101467967
1729115012820947700,24.89894775390625,-0.0006108472589403391,0.00030542362947016954,-0.00022906772210262716
1729115012854280700,24.93228076171875,-0.00015271181473508477,-0.00015271181473508477,-0.00022906772210262716
1729115012887613700,24.96561376953125,0,0,-0.00022906772210262716
1729115012920946700,24.99894677734375,-0.0004581354442052543,-0.00015271181473508477,-0.00022906772210262716
1729115012954279700,25.03227978515625,-0.00015271181473508477,0.00030542362947016954,-0.00022906772210262716
1729115012987612700,25.06561279296875,-0.00015271181473508477,-0.00015271181473508477,-0.00022906772210262716
1729115013020946000,25.09894580078125,-0.0011453386396169662,-0.00015271181473508477,0.00030542362947016954
1729115013054279000,25.13227880859375,-0.00007635590736754239,-0.00015271181473508477,-0.00022906772210262716
1729115013087612000,25.16561181640625,0.00022906772210262716,0,0.00022906772210262716
1729115013120945000,25.19894482421875,-0.00015271181473508477,-0.00015271181473508477,-0.00022906772210262716
1729115013154278000,25.23227783203125,0.00030542362947016954,-0.00015271181473508477,-0.00022906772210262716
1729115013187611000,25.26561083984375,-0.0005344913806766272,-0.00015271181473508477,-0.0005344913806766272
1729115013220944000,25.29894384765625,-0.0005344913806766272,0.00007635590736754239,0.00022906772210262716
1729115013254276900,25.33227685546875,0.00030542362947016954,0.0004581354442052543,-0.00022906772210262716
1729115013287609900,25.36560986328125,-0.00022906772210262716,-0.00007635590736754239,-0.00022906772210262716
1729115013320943000,25.398943115234374,-0.00038177953683771193,-0.00015271181473508477,0.00015271181473508477
1729115013354276000,25.432276123046876,-0.00038177953683771193,-0.00038177953683771193,0
1729115013387609000,25.465609130859374,-0.0007635590736754239,-0.00015271181473508477,-0.00022906772210262716
1729115013420942000,25.498942138671875,-0.0007635590736754239,0.00038177953683771193,-0.00022906772210262716
1729115013454275000,25.532275146484373,0.00007635590736754239,-0.00015271181473508477,-0.00022906772210262716
1729115013487608000,25.565608154296875,-0.0005344913806766272,-0.00015271181473508477,-0.00022906772210262716
1729115013520941000,25.598941162109377,0.0010689827613532543,-0.001374406274408102,-0.00022906772210262716
1729115013554274000,25.632274169921875,0.0010689827613532543,-0.0030542362947016954,0.0051158457063138485
1729115013587607000,25.66560693359375,0.002061609411612153,-0.010155336000025272,0.007559234742075205
1729115013620940300,25.698940185546874,0.011529741808772087,-0.011071606539189816,0.00786465872079134
1729115013654273300,25.732273193359376,0.0032833039294928312,-0.006337540224194527,0.0035887276753783226
1729115013687606300,25.765606201171874,-0.007177455350756645,-0.01695101149380207,0.008857285603880882
1729115013720939300,25.798939208984375,0.02008160389959812,-0.019394399598240852,0.0067956759594380856
1729115013754272300,25.832272216796873,0.024662958458065987,-0.008017370477318764,-0.0008399150101467967
1729115013787605200,25.865605224609375,0.016645587980747223,0.02229592576622963,-0.0007635590736754239
1729115013820938200,25.898938232421877,-0.006032116711139679,0.012827792204916477,0.008093725889921188
1729115013854271200,25.932271240234375,-0.021379653364419937,-0.00007635590736754239,0.0029015245381742716
1729115013887604200,25.965604248046876,-0.02145601063966751,-0.009544488042593002,0.015042114071547985
1729115013920937500,25.9989375,-0.037261683493852615,-0.029778804630041122,0.018783552572131157
1729115013954270500,26.0322705078125,-0.054518118500709534,0.008017370477318764,0.014278554357588291
1729115013987603500,26.065603515625,-0.06184828653931618,0.008551862090826035,0.011071606539189816
1729115014020936400,26.0989365234375,-0.07620319724082947,-0.0007635590736754239,0.054365407675504684
1729115014054269400,26.13226953125,-0.0946049690246582,-0.02092151902616024,0.01435491070151329
1729115014087602400,26.1656025390625,-0.07887565344572067,0.008551862090826035,0.006032116711139679
1729115014120935400,26.198935302734377,-0.08345700800418854,0.03718532621860504,0.028404397889971733
1729115014154268400,26.232268310546875,-0.08368607610464096,0.003359660040587187,0.04375193640589714
1729115014187601400,26.265601318359376,-0.09689565002918243,0.012369656935334206,-0.011911521665751934
1729115014220934700,26.2989345703125,-0.10582929104566574,-0.041384901851415634,-0.006337540224194527
1729115014254267600,26.332267578125,-0.10178242623806,-0.05795413255691528,0.0022906772792339325
1729115014287600600,26.3656005859375,-0.13186664879322052,-0.016187451779842377,-0.046424392610788345
1729115014320933600,26.39893359375,-0.13347013294696808,-0.002748812548816204,0.008399149402976036
1729115014354266600,26.4322666015625,-0.10254598408937454,-0.08422056585550308,-0.10155335813760757
1729115014387599600,26.465599609375,-0.11445750296115875,-0.049020491540431976,-0.019623467698693275
1729115014420932600,26.4989326171875,-0.0811663269996643,0.0038177953101694584,0.00007635590736754239
1729115014454265600,26.532265625,-0.06704048812389374,0.06116108223795891,-0.0036650835536420345
1729115014487598600,26.5655986328125,-0.0978882759809494,0.012140588834881783,0.02832804247736931
1729115014520931800,26.598931884765626,-0.0656660795211792,-0.0361163429915905,0.03367295488715172
1729115014554264800,26.632264892578124,-0.03008422814309597,0.012216945178806782,0.09956810623407364
1729115014587597800,26.665597900390626,-0.029320668429136276,0.013514995574951172,-0.0015271181473508477
1729115014620930800,26.698930908203124,-0.014049487188458443,-0.005879404954612255,0.04459185153245926
1729115014654263800,26.732263916015626,0.05619794875383377,0.043293800204992294,0.06291726976633072
1729115014687596800,26.7655966796875,0.08261708915233612,0.03077143058180809,0.016111096367239952
1729115014720929800,26.7989296875,0.1253764033317566,-0.011071606539189816,0.023364907130599022
1729115014754262800,26.8322626953125,0.22967857122421265,0.0462716780602932,0.0231358390301466
1729115014787595800,26.865595703125,0.27564483880996704,0.06467345356941223,0.007330167107284069
1729115014820929000,26.898928955078127,0.30939415097236633,0.08994726091623306,-0.055739812552928925
1729115014854262000,26.932261962890625,0.3509317636489868,0.058717694133520126,-0.036039989441633224
1729115014887595000,26.965594970703126,0.36605021357536316,0.01725643500685692,0.033291175961494446
1729115014920928000,26.998927978515624,0.4514924883842468,0.013514995574951172,-0.06047387793660164
1729115014954261000,27.032260986328126,0.47653722763061523,-0.082082599401474,-0.0032069480512291193
1729115014987594000,27.065593994140624,0.5993174910545349,-0.0462716780602932,-0.02924431301653385
1729115015020927000,27.098927001953125,0.7021689414978027,0.024968381971120834,-0.06681142002344131
1729115015054260000,27.132260009765623,0.7860840559005737,-0.0038177953101694584,-0.03687990456819534
1729115015087593000,27.165593017578125,0.8359444737434387,0.016874656081199646,-0.10796725004911423
1729115015120926200,27.19892626953125,0.8727480173110962,0.06452073901891708,-0.053983625024557114
1729115015154259200,27.23225927734375,0.8835142254829407,-0.011911521665751934,-0.02641914412379265
1729115015187592200,27.26559228515625,0.9459733366966248,-0.09315420687198639,-0.08131904155015945
1729115015220925200,27.29892529296875,1.0071344375610352,-0.01748550310730934,0.025884652510285378
1729115015254258200,27.332258056640626,0.9844567179679871,0.024128466844558716,0.07452336698770523
1729115015287591200,27.365591064453124,0.9716289043426514,-0.004199574701488018,0.012446013279259205
1729115015320924200,27.398924072265626,0.9977426528930664,-0.02626643143594265,0.058870404958724976
1729115015354257200,27.432257080078124,0.9295567870140076,0.004810422193259001,-0.11720632016658783
1729115015387590100,27.465590087890625,0.9608627557754517,-0.007788302376866341,-0.08047912269830704
1729115015420923400,27.49892333984375,0.9352834820747375,0.0397050715982914,-0.07146912813186646
1729115015454256400,27.53225634765625,0.8955784440040588,0.05405998229980469,-0.06719319522380829
1729115015487589400,27.56558935546875,0.8838196396827698,0.015652960166335106,-0.016721943393349648
1729115015520922400,27.59892236328125,0.8601493239402771,0.00259610079228878,-0.004810422193259001
1729115015554255400,27.63225537109375,0.8306758999824524,0.027029991149902344,0.0007635590736754239
1729115015587588400,27.66558837890625,0.8096780180931091,0.050013117492198944,0.015042114071547985
1729115015620921300,27.69892138671875,0.7834116220474243,0.0328330397605896,-0.004275931045413017
1729115015654254300,27.73225439453125,0.753480076789856,-0.0626882016658783,-0.01969982497394085
1729115015687587600,27.765587646484374,0.7570688128471375,-0.05825955793261528,0.04543176665902138
1729115015720920600,27.798920654296875,0.7928797602653503,-0.11483928561210632,-0.06223006546497345
1729115015754253600,27.832253662109373,0.8249492049217224,-0.017867282032966614,-0.09093988686800003
1729115015787586600,27.865586669921875,0.8733588457107544,0.024128466844558716,-0.04253023862838745
1729115015820919600,27.89891943359375,0.9016869068145752,0.050013117492198944,-0.09323056042194366
1729115015854252500,27.93225244140625,0.8302177786827087,-0.004352286923676729,-0.13240113854408264
1729115015887585500,27.96558544921875,0.8323557376861572,0.049173206090927124,-0.1408766508102417
1729115015920918500,27.99891845703125,0.7566106915473938,0.024662958458065987,-0.033596597611904144
1729115015954251500,28.03225146484375,0.62543123960495,-0.02901524491608143,-0.10048437118530273
1729115015987584800,28.065584716796874,0.46370941400527954,0.04253023862838745,0.05428905040025711
1729115016020917800,28.098917724609375,0.32962843775749207,0.04695888236165047,0.01885990984737873
1729115016054250800,28.132250732421873,0.19921256601810455,-0.031000498682260513,0.04214845970273018
1729115016087583700,28.165583740234375,0.08987089991569519,-0.05665608495473862,0.03390202298760414
1729115016120916700,28.198916748046877,0.057496000081300735,-0.05131116881966591,0.06360447406768799
1729115016154249700,28.232249755859375,-0.0006108472589403391,-0.038101598620414734,0.1414874941110611
1729115016187582700,28.265582763671876,-0.043293800204992294,-0.04802786558866501,-0.026190076023340225
1729115016220915700,28.298915771484374,-0.09025268256664276,-0.0025197449140250683,0.06765133142471313
1729115016254248700,28.332248779296876,-0.15584240853786469,-0.06016845628619194,0.004352286923676729
1729115016287582000,28.36558203125,-0.12972868978977203,-0.044515494257211685,0.023593975231051445
1729115016320915000,28.3989150390625,-0.1889045089483261,-0.029167955741286278,0.012140588834881783
1729115016354248000,28.432248046875,-0.2441861927509308,-0.009391776286065578,0.04222481697797775
1729115016387581000,28.465580810546875,-0.3417690396308899,-0.041232191026210785,-0.007101099472492933
1729115016420914000,28.498913818359377,-0.42461520433425903,-0.03229855000972748,0.0587940476834774
1729115016454247000,28.532246826171875,-0.5512896776199341,-0.0429883748292923,0.05047125369310379
1729115016487580000,28.565579833984376,-0.60741126537323,-0.005650337319821119,-0.06329904496669769
1729115016520913000,28.598912841796874,-0.6911736726760864,0.0022906772792339325,0.0361163429915905
1729115016554246000,28.632245849609376,-0.7026270627975464,-0.007711946498602629,-0.06841489672660828
1729115016587579100,28.6655791015625,-0.8106706738471985,-0.03161134570837021,-0.01779092662036419
1729115016620912000,28.698912109375,-0.9395594596862793,-0.04581354558467865,-0.026877280324697495
1729115016654245000,28.7322451171875,-1.0762364864349365,0.023288551717996597,0.04940227046608925
1729115016687578000,28.765578125,-1.3105727434158325,-0.04703523963689804,-0.05757235363125801
1729115016720911000,28.7989111328125,-1.45366370677948,-0.021150587126612663,0.0019088976550847292
1729115016754244000,28.832244140625,-1.583850622177124,0.03306210786104202,-0.039476003497838974
1729115016787577000,28.8655771484375,-1.7190768718719482,0.06780404597520828,-0.0025197449140250683
1729115016820910000,28.89891015625,-1.8489582538604736,0.04031591862440109,0.0295497365295887
1729115016854243000,28.9322431640625,-1.9265358448028564,-0.06963659077882767,0.029320668429136276
1729115016887576300,28.965576416015626,-2.0198428630828857,-0.12171131372451782,0.10598199814558029
1729115016920909300,28.998909423828124,-2.027020215988159,-0.3214583694934845,0.02244863659143448
1729115016954242300,29.0322421875,-1.9779998064041138,-0.5258631110191345,0.0856713280081749
1729115016987575300,29.0655751953125,-1.860258936882019,-0.34612134099006653,0.02420482225716114
1729115017020908300,29.098908203125,-2.177670478820801,0.030542362481355667,-0.13568444550037384
1729115017054241300,29.1322412109375,-2.328855276107788,0.07406523078680038,-0.06963659077882767
1729115017087574300,29.16557421875,-2.199279308319092,0.12629267573356628,-0.0017561858985573053
1729115017120907300,29.1989072265625,-2.0969622135162354,0.13018682599067688,-0.2623589038848877
1729115017154240300,29.232240234375,-1.9450139999389648,0.04772244393825531,-0.21387289464473724
1729115017187573500,29.265573486328126,-1.7351880073547363,-0.07200361788272858,-0.1074327602982521
1729115017220906500,29.298906494140624,-1.5488032102584839,-0.10422581434249878,-0.17180079221725464
1729115017254239500,29.332239501953126,-1.5186426639556885,0.018096350133419037,-0.04741701856255531
1729115017287572500,29.365572509765624,-1.462062954902649,-0.031000498682260513,-0.022906772792339325
1729115017320905500,29.398905517578125,-1.4317495822906494,0.043828289955854416,0.0016034740256145597
1729115017354238500,29.432238525390623,-1.4037270545959473,0.09483403712511063,-0.05024218559265137
1729115017387571500,29.465571533203125,-1.3340140581130981,0.10201149433851242,-0.05306735634803772
1729115017420904400,29.498904541015627,-0.9788063764572144,-0.0035123717971146107,0.0231358390301466
1729115017454237400,29.532237548828125,-0.5941253304481506,-0.00007635590736754239,0.028557108715176582
1729115017487570700,29.56557080078125,-0.2664821147918701,0.027182703837752342,0.04153761267662048
1729115017520903700,29.598903564453124,-0.07116370648145676,0.09949174523353577,0.09109259396791458
1729115017554236700,29.632236572265626,0.004734066314995289,0.141182079911232,-0.046577103435993195
1729115017587569700,29.665569580078124,0.0035123717971146107,0.2289150059223175,-0.07933378964662552
1729115017620902700,29.698902587890625,0.002748812548816204,0.3331408202648163,-0.08452598750591278
1729115017654235600,29.732235595703123,0.010918894782662392,0.4492781460285187,-0.11567919701337814
1729115017687568600,29.765568603515625,-0.11888615041971207,0.22303560376167297,-0.16630317270755768
1729115017720901600,29.798901611328127,0.07826480269432068,-0.047951508313417435,-0.05467082932591438
1729115017754234600,29.832234619140625,0.12247487902641296,-0.11025793105363846,0.010766183026134968
1729115017787567900,29.86556787109375,0.09735377877950668,-0.07337802648544312,-0.022677704691886902
1729115017820900900,29.89890087890625,0.05459447205066681,-0.005803049076348543,-0.012446013279259205
1729115017854233900,29.93223388671875,0.051769305020570755,-0.07666133344173431,-0.037567105144262314
1729115017887566800,29.96556689453125,0.054899897426366806,-0.05528167635202408,-0.041232191026210785
1729115017920899800,29.99889990234375,0.033978380262851715,-0.02489202655851841,-0.054365407675504684
1729115017954232800,30.03223291015625,0.022524992004036903,-0.03374931216239929,-0.031153209507465363
1729115017987565800,30.06556591796875,0.029320668429136276,-0.05566345527768135,-0.05062396824359894
1729115018020898800,30.09889892578125,0.030007870867848396,-0.09399411827325821,-0.02076880633831024
1729115018054232000,30.132232177734377,0.02710634656250477,-0.06963659077882767,0.001985253533348441
1729115018087565000,30.16556494140625,0.004046862944960594,0.012675080448389053,0.0492495596408844
1729115018120898000,30.19889794921875,0.012827792204916477,0.050547610968351364,0.04680617153644562
1729115018154231000,30.23223095703125,0.021150587126612663,0.03504735976457596,0.03680354729294777
1729115018187564000,30.26556396484375,0.023288551717996597,0.01175880990922451,0.03268032893538475
1729115018220897000,30.29889697265625,0.023059483617544174,0.020997874438762665,0.028557108715176582
1729115018254230000,30.33222998046875,0.0012216945178806782,-0.003970507066696882,0.016645587980747223
1729115018287563000,30.36556298828125,-0.015576604753732681,-0.015958385542035103,0.01435491070151329
1729115018320896000,30.39889599609375,-0.04146125912666321,-0.008475505746901035,0.011071606539189816
1729115018354229200,30.432229248046873,-0.025502873584628105,-0.014660334214568138,0.004199574701488018
1729115018387562200,30.465562255859375,-0.0010689827613532543,0.0035123717971146107,0.004657710436731577
1729115018420895200,30.498895263671876,0.005650337319821119,-0.0007635590736754239,0.0009926267666742206
1729115018454228200,30.532228271484374,-0.005497625097632408,0,-0.00022906772210262716
1729115018487561200,30.565561279296876,-0.00259610079228878,0.005344913341104984,-0.001985253533348441
1729115018520894200,30.598894287109374,-0.0036650835536420345,0.004734066314995289,-0.0014507622690871358
1729115018554227200,30.632227294921876,-0.006032116711139679,0.0050394898280501366,-0.0023670331574976444
1729115018587560200,30.665560302734374,-0.008933641016483307,0.0028251686599105597,-0.0034360159188508987
1729115018620893200,30.69889306640625,-0.004046862944960594,-0.00007635590736754239,-0.00259610079228878
1729115018654226400,30.732226318359373,0.006184828467667103,0.0035887276753783226,-0.0014507622690871358
1729115018687559400,30.765559326171875,-0.010689826682209969,0.003970507066696882,-0.0010689827613532543
1729115018720892400,30.798892333984377,-0.006413896102458239,-0.0009926267666742206,-0.0016034740256145597
1729115018754225400,30.832225341796875,0.004504998680204153,0.0022143214009702206,-0.0008399150101467967
1729115018787558400,30.865558349609376,-0.0008399150101467967,0.0011453386396169662,-0.0008399150101467967
1729115018820891400,30.898891357421874,-0.0016798300202935934,-0.00038177953683771193,-0.00022906772210262716
1729115018854224400,30.932224365234376,-0.00038177953683771193,0.0004581354442052543,-0.00038177953683771193
1729115018887557400,30.965557373046874,-0.000687203137204051,-0.000687203137204051,-0.00015271181473508477
1729115018920890400,30.998890380859375,0.00038177953683771193,0.00038177953683771193,0.00038177953683771193
1729115018954223600,31.0322236328125,-0.0005344913806766272,0.00007635590736754239,-0.00022906772210262716
1729115018987556600,31.065556640625,0.00007635590736754239,-0.00015271181473508477,0
1729115019020889600,31.0988896484375,0.0004581354442052543,0.0004581354442052543,-0.0009162708884105086
1729115019054222600,31.13222265625,-0.0006108472589403391,-0.00007635590736754239,-0.0008399150101467967
1729115019087555600,31.1655556640625,-0.00015271181473508477,0.00022906772210262716,-0.00022906772210262716
1729115019120888600,31.198888671875,-0.0005344913806766272,0.0004581354442052543,-0.00022906772210262716
1729115019154221600,31.2322216796875,-0.0015271181473508477,0,-0.00007635590736754239
1729115019187554600,31.265554443359374,-0.00030542362947016954,0.0005344913806766272,-0.00015271181473508477
1729115019220887600,31.298887451171876,-0.00015271181473508477,0.00022906772210262716,-0.0006108472589403391
1729115019254220800,31.332220703125,-0.0005344913806766272,0.0004581354442052543,-0.0008399150101467967
1729115019287553800,31.3655537109375,-0.00015271181473508477,0.0004581354442052543,-0.000687203137204051
1729115019320886800,31.39888671875,-0.00015271181473508477,-0.00015271181473508477,0.00038177953683771193
1729115019354219800,31.4322197265625,-0.00038177953683771193,-0.00015271181473508477,-0.00022906772210262716
1729115019387552800,31.465552734375,0.00015271181473508477,0.00015271181473508477,0.00007635590736754239
1729115019420885800,31.4988857421875,-0.0011453386396169662,-0.00015271181473508477,-0.00022906772210262716
1729115019454218800,31.53221875,0.0004581354442052543,-0.00015271181473508477,0.00038177953683771193
1729115019487551700,31.5655517578125,-0.00015271181473508477,-0.0006108472589403391,0
1729115019520884700,31.598884765625,0.00015271181473508477,-0.00015271181473508477,-0.00022906772210262716
1729115019554218000,31.632218017578126,-0.0007635590736754239,0,-0.00022906772210262716
1729115019587551000,31.665551025390624,0.0004581354442052543,-0.00015271181473508477,-0.00022906772210262716
1729115019620884000,31.698884033203125,-0.00015271181473508477,0,-0.00022906772210262716
1729115019654217000,31.732217041015623,0.00015271181473508477,-0.00015271181473508477,-0.00022906772210262716
1729115019687550000,31.765550048828125,0.00030542362947016954,0,-0.00022906772210262716
1729115019720883000,31.798883056640626,-0.00022906772210262716,-0.00015271181473508477,-0.00022906772210262716
1729115019754216000,31.8322158203125,-0.0029778804164379835,0.00030542362947016954,-0.00022906772210262716
1729115019787549000,31.865548828125,-0.007406522985547781,0.0004581354442052543,-0.00022906772210262716
1729115019820882000,31.8988818359375,-0.033291175961494446,0.0009926267666742206,0.00259610079228878
1729115019854215200,31.932215087890626,-0.08284615725278854,0.0016798300202935934,-0.005268557462841272
1729115019887548200,31.965548095703124,-0.1435490995645523,-0.013285927474498749,0.0030542362947016954
1729115019920881200,31.998881103515625,-0.30305659770965576,0.011987877078354359,0.0007635590736754239
1729115019954214100,32.03221411132812,-0.5434249639511108,0.009544488042593002,0.008780929259955883
1729115019987547100,32.065547119140625,-0.8509102463722229,0.00015271181473508477,0.010689826682209969
1729115020020880100,32.09888012695313,-1.1567920446395874,0.00015271181473508477,0.016645587980747223
1729115020054213000,32.13221313476563,-1.4229687452316284,-0.0017561858985573053,0.01626380905508995
1729115020087546000,32.16554614257812,-1.6493639945983887,-0.0012216945178806782,0.016492875292897224
1729115020120879000,32.198879150390624,-1.8666728734970093,0.015576604753732681,0.02145601063966751
1729115020154212400,32.23221240234375,-1.9996848106384277,0.013896775431931019,0.034283801913261414
1729115020187545300,32.26554541015625,-2.0392372608184814,0.0031305921729654074,0.0397050715982914
1729115020220878300,32.29887841796875,-2.0298454761505127,-0.0050394898280501366,0.036039989441633224
1729115020254211300,32.33221142578125,-1.9956380128860474,-0.019318044185638428,0.032069481909275055
1729115020287544300,32.36554443359375,-1.9544057846069336,-0.06184828653931618,0.06261184066534042
1729115020320877300,32.39887719726563,-1.9189766645431519,0.007559234742075205,0.01435491070151329
1729115020354210300,32.43221020507813,-1.8606407642364502,-0.031534988433122635,0.033596597611904144
1729115020387543300,32.46554321289062,-1.818110466003418,-0.03894151374697685,0.02970244735479355
1729115020420876500,32.49887646484375,-1.7584002017974854,-0.07994463294744492,0.04199574887752533
1729115020454209500,32.53220947265625,-1.7222838401794434,-0.03168770298361778,0.017180079594254494
1729115020487542500,32.56554248046875,-1.6750195026397705,-0.03855973482131958,0.014431266114115715
1729115020520875500,32.59887548828125,-1.6470732688903809,-0.04749337583780289,0.018019994720816612
1729115020554208500,32.63220849609375,-1.6277552843093872,-0.017332790419459343,0.004428642801940441
1729115020587541500,32.66554150390625,-1.65883207321167,0.0068720318377017975,-0.0016798300202935934
1729115020620874500,32.69887451171875,-1.6825023889541626,-0.007635590620338917,0.012216945178806782
1729115020654207500,32.73220751953125,-1.7219020128250122,-0.010155336000025272,0.008322793990373611
1729115020687540500,32.76554052734375,-1.7606909275054932,-0.03008422814309597,0.021150587126612663
1729115020720873700,32.798873779296876,-1.8026102781295776,-0.013744063675403595,0.00519220158457756
1729115020754206700,32.83220678710938,-1.819637656211853,-0.015576604753732681,0.009773556143045425
1729115020787539700,32.86553979492187,-1.8376575708389282,-0.019470756873488426,0.0130568603053689
1729115020820872700,32.898872802734374,-1.8443769216537476,-0.005421269219368696,0.008780929259955883
1729115020854205700,32.932205810546876,-1.858808159828186,0.01175880990922451,0.0025197449140250683
1729115020887538700,32.96553857421875,-1.8594191074371338,-0.005726693198084831,0.014965757727622986
1729115020920871700,32.99887158203125,-1.8706433773040771,0.004275931045413017,0.006032116711139679
1729115020954204700,33.03220458984375,-1.8564411401748657,-0.007941014133393764,0.005879404954612255
1729115020987537700,33.06553759765625,-1.8592664003372192,0.00992626789957285,0.005421269219368696
1729115021020871000,33.098870849609376,-1.8262805938720703,0.028098974376916885,-0.00015271181473508477
1729115021054204000,33.13220385742188,-1.7747403383255005,0.013896775431931019,0.015042114071547985
1729115021087537000,33.16553686523437,-1.639055848121643,0.025884652510285378,-0.0012216945178806782
1729115021120870000,33.198869873046874,-1.3618075847625732,-0.014431266114115715,0.012446013279259205
1729115021154203000,33.232202880859376,-1.008203387260437,0.011529741808772087,-0.002061609411612153
1729115021187536000,33.26553588867188,-0.6764369606971741,-0.008093725889921188,0.004581354558467865
1729115021220868900,33.29886889648437,-0.39231663942337036,0.005803049076348543,0.0021379655227065086
1729115021254201900,33.33220190429687,-0.12766708433628082,0.00786465872079134,-0.0016034740256145597
1729115021287534800,33.365534912109375,0.03489464893937111,0.0025197449140250683,-0.0009926267666742206
1729115021320868000,33.3988681640625,0.025197450071573257,0.0011453386396169662,0.0022906772792339325
1729115021354201000,33.432201171875,-0.021150587126612663,0.008170082233846188,-0.0037414394319057465
1729115021387534000,33.4655341796875,-0.001374406274408102,-0.005344913341104984,0.0011453386396169662
1729115021420867000,33.4988671875,0.006948387715965509,0.0029015245381742716,-0.00038177953683771193
1729115021454200000,33.532199951171876,-0.0030542362947016954,0.0012216945178806782,-0.0008399150101467967
1729115021487533000,33.56553295898438,-0.001374406274408102,-0.0030542362947016954,-0.00030542362947016954
1729115021520866000,33.59886596679687,0.0016798300202935934,0.002748812548816204,-0.00022906772210262716
1729115021554199000,33.63219897460937,0.00022906772210262716,-0.0014507622690871358,-0.00022906772210262716
1729115021587532000,33.665531982421875,0.00007635590736754239,0.000687203137204051,-0.0005344913806766272
1729115021620865300,33.698865234375,0.00030542362947016954,0.0008399150101467967,-0.00007635590736754239
1729115021654198300,33.7321982421875,-0.00015271181473508477,-0.0007635590736754239,-0.00015271181473508477
1729115021687531300,33.76553125,0.00030542362947016954,0.0009162708884105086,-0.00022906772210262716
1729115021720864300,33.7988642578125,0.00015271181473508477,-0.0004581354442052543,0.00015271181473508477
1729115021754197200,33.832197265625,-0.00015271181473508477,0,0.00030542362947016954
1729115021787530200,33.8655302734375,0.0004581354442052543,-0.00015271181473508477,-0.00022906772210262716
1729115021820863200,33.89886328125,0.0004581354442052543,-0.00015271181473508477,-0.00022906772210262716
1729115021854196200,33.9321962890625,-0.00015271181473508477,0.00015271181473508477,-0.00022906772210262716
1729115021887529200,33.965529296875,-0.00015271181473508477,0.0004581354442052543,-0.00022906772210262716
1729115021920862500,33.99886254882812,-0.00015271181473508477,0.0004581354442052543,-0.00022906772210262716
1729115021954195500,34.03219555664062,0.0004581354442052543,0.00030542362947016954,-0.00022906772210262716
1729115021987528400,34.065528564453125,0.00007635590736754239,0.00015271181473508477,-0.0005344913806766272
1729115022020861400,34.098861328125,0.0004581354442052543,-0.00015271181473508477,-0.0004581354442052543
1729115022054194400,34.1321943359375,0.0004581354442052543,-0.00015271181473508477,-0.00022906772210262716
1729115022087527400,34.16552734375,0.0004581354442052543,-0.00007635590736754239,-0.0008399150101467967
1729115022120860400,34.1988603515625,0.0004581354442052543,0.00015271181473508477,0.00007635590736754239
1729115022154193400,34.232193359375,-0.00015271181473508477,-0.00015271181473508477,-0.00022906772210262716
1729115022187526400,34.2655263671875,0.0004581354442052543,0.00038177953683771193,-0.00022906772210262716
1729115022220859600,34.29885961914062,-0.00007635590736754239,0.00038177953683771193,-0.00022906772210262716
1729115022254192600,34.33219262695312,0.00007635590736754239,0.00007635590736754239,-0.00030542362947016954
1729115022287525600,34.365525634765625,0.0004581354442052543,0.0004581354442052543,-0.00022906772210262716
1729115022320858600,34.398858642578126,-0.00007635590736754239,0.00038177953683771193,-0.00015271181473508477
1729115022354191600,34.43219165039063,-0.00007635590736754239,-0.00015271181473508477,-0.00015271181473508477
1729115022387524600,34.46552465820312,0.00007635590736754239,-0.00038177953683771193,0.00022906772210262716
1729115022420857600,34.498857666015624,0.0004581354442052543,0.00007635590736754239,-0.0004581354442052543
1729115022454190600,34.532190673828126,-0.00007635590736754239,0.00038177953683771193,-0.000687203137204051
1729115022487523600,34.56552368164063,0.0004581354442052543,-0.00015271181473508477,-0.00022906772210262716
1729115022520856800,34.59885693359375,-0.00015271181473508477,-0.00015271181473508477,-0.00022906772210262716
1729115022554189800,34.63218994140625,0.0004581354442052543,0.00007635590736754239,0.00038177953683771193
1729115022587522800,34.665522705078125,-0.00015271181473508477,-0.00007635590736754239,-0.00022906772210262716
1729115022620855800,34.69885571289063,-0.00015271181473508477,0.0004581354442052543,-0.00022906772210262716
1729115022654188800,34.73218872070313,-0.00015271181473508477,-0.00015271181473508477,-0.0006108472589403391
1729115022687521800,34.76552172851562,0.00007635590736754239,0.0004581354442052543,-0.0004581354442052543
1729115022720854800,34.798854736328124,-0.00015271181473508477,-0.00015271181473508477,-0.00007635590736754239
1729115022754187800,34.832187744140626,-0.00015271181473508477,0.0004581354442052543,-0.00015271181473508477
1729115022787521000,34.86552099609375,0.00007635590736754239,-0.00015271181473508477,-0.0006108472589403391
1729115022820854000,34.89885400390625,-0.00015271181473508477,0.0004581354442052543,-0.00022906772210262716
1729115022854187000,34.93218701171875,0.00030542362947016954,-0.00015271181473508477,0.00030542362947016954
1729115022887520000,34.96552001953125,-0.00015271181473508477,-0.00015271181473508477,-0.00022906772210262716
1729115022920853000,34.99885302734375,0.00030542362947016954,0,-0.00022906772210262716
1729115022954186000,35.03218603515625,-0.00015271181473508477,-0.00015271181473508477,-0.00022906772210262716
1729115022987519000,35.06551904296875,-0.00015271181473508477,-0.00015271181473508477,-0.00022906772210262716
1729115023020852000,35.09885205078125,-0.00015271181473508477,-0.00015271181473508477,-0.00022906772210262716
1729115023054185000,35.13218505859375,-0.0006108472589403391,-0.0006108472589403391,-0.00022906772210262716
1729115023087518200,35.16551831054687,0.00007635590736754239,0.0004581354442052543,-0.00022906772210262716
1729115023120851200,35.198851318359374,-0.0006108472589403391,0.0004581354442052543,-0.00022906772210262716
1729115023154184200,35.23218408203125,0.0004581354442052543,0.00038177953683771193,-0.00022906772210262716
1729115023187517200,35.26551708984375,-0.0005344913806766272,0.00030542362947016954,-0.0008399150101467967
1729115023220850200,35.29885009765625,-0.00007635590736754239,0.00007635590736754239,-0.00015271181473508477
1729115023254183200,35.33218310546875,0.00022906772210262716,0.0004581354442052543,-0.00022906772210262716
1729115023287516200,35.36551611328125,0.0025197449140250683,0.00015271181473508477,0.0006108472589403391
1729115023320849200,35.39884912109375,0.03894151374697685,0.0023670331574976444,-0.00022906772210262716
1729115023354182100,35.43218212890625,0.012598725035786629,0.005497625097632408,-0.001374406274408102
1729115023387515400,35.46551538085937,-0.011911521665751934,-0.0016034740256145597,0.0005344913806766272
1729115023420848400,35.498848388671874,-0.00007635590736754239,-0.00030542362947016954,0.003359660040587187
1729115023454181400,35.532181396484376,-0.0038177953101694584,-0.004046862944960594,0.006719320081174374
1729115023487514400,35.56551440429688,-0.0025197449140250683,-0.004581354558467865,0.008322793990373611
1729115023520847400,35.59884741210937,0.0021379655227065086,-0.0021379655227065086,0.009544488042593002
1729115023554180400,35.63218041992187,-0.025808297097682953,-0.0029015245381742716,0.012751436792314053
1729115023587513300,35.665513427734375,-0.02367033064365387,0.009468132629990578,-0.0022906772792339325
1729115023620846300,35.698846435546876,-0.05016583204269409,0.00030542362947016954,0.004275931045413017
1729115023654179300,35.73217944335938,-0.07337802648544312,-0.01901262067258358,0.0014507622690871358
1729115023687512600,35.7655126953125,-0.072843536734581,-0.06169557198882103,-0.007330167107284069
1729115023720845600,35.798845458984374,-0.07139277458190918,-0.10078980028629303,0.04558447748422623
1729115023754178600,35.832178466796876,-0.05703786388039589,-0.001374406274408102,-0.02351761981844902
1729115023787511600,35.86551147460938,-0.03665083646774292,0.10338589549064636,-0.04405735805630684
1729115023820844500,35.89884448242187,-0.05566345527768135,0.08360971510410309,-0.06810946762561798
1729115023854177500,35.93217749023437,-0.08651123940944672,0.037414394319057465,-0.01969982497394085
1729115023887510500,35.965510498046875,-0.0955212414264679,0.0014507622690871358,-0.011529741808772087
1729115023920843500,35.99884350585938,-0.09177979826927185,0.0130568603053689,-0.0198525357991457
1729115023954176500,36.03217651367188,-0.08353336155414581,0.011377030052244663,-0.005421269219368696
1729115023987509800,36.065509765625,-0.08689302206039429,0.01794363744556904,-0.011835165321826935
1729115024020842800,36.0988427734375,-0.08101361989974976,0.02023431472480297,-0.042606595903635025
1729115024054175700,36.13217578125,-0.07498150318861008,0.06032116711139679,0.013591351918876171
1729115024087508700,36.1655087890625,-0.07291989028453827,0.00862821750342846,0.010766183026134968
1729115024120841700,36.198841796875,-0.08651123940944672,-0.014965757727622986,0.044515494257211685
1729115024154174700,36.2321748046875,-0.036039989441633224,-0.08063183724880219,-0.06116108223795891
1729115024187507700,36.2655078125,-0.04688252881169319,0.0007635590736754239,-0.005421269219368696
1729115024220840700,36.2988408203125,-0.049554985016584396,0.08429691940546036,-0.01954711228609085
1729115024254173700,36.33217358398438,-0.06276455521583557,0.0429883748292923,-0.055052608251571655
1729115024287507000,36.3655068359375,-0.06994201242923737,0.05604523420333862,0.0005344913806766272
1729115024320840000,36.39883984375,-0.07406523078680038,-0.016340164467692375,-0.04443913698196411
1729115024354173000,36.4321728515625,-0.06276455521583557,0.06001574173569679,-0.021379653364419937
1729115024387506000,36.465505859375,-0.13186664879322052,-0.00916270911693573,-0.03779617324471474
1729115024420839000,36.4988388671875,-0.08467870205640793,-0.049707695841789246,0.03367295488715172
1729115024454172000,36.532171875,-0.04222481697797775,-0.0038177953101694584,-0.010078979656100273
1729115024487505000,36.5655048828125,-0.02214321307837963,0.10323318839073181,0.055052608251571655
1729115024520838000,36.598837890625,-0.05703786388039589,-0.03626905754208565,-0.010766183026134968
1729115024554171000,36.6321708984375,-0.09697200357913971,-0.07933378964662552,-0.05497625470161438
1729115024587504000,36.665504150390625,-0.18180342018604279,0.041384901851415634,-0.057801421731710434
1729115024620837000,36.698837158203126,-0.40751147270202637,-0.004046862944960594,-0.13186664879322052
1729115024654170000,36.73217016601563,-0.7571451663970947,-0.01817270554602146,-0.09307785332202911
1729115024687503000,36.76550317382812,-1.073564052581787,-0.05795413255691528,-0.09475768357515335
1729115024720836000,36.798836181640624,-1.3964731693267822,-0.0024433890357613564,0.029778804630041122
1729115024754169000,36.832169189453126,-1.7047983407974243,-0.060932014137506485,-0.02298312820494175
1729115024787502000,36.86550219726563,-1.945090413093567,0.015042114071547985,0.06673506647348404
1729115024820835000,36.8988349609375,-2.0472545623779297,-0.06704048812389374,0.007406522985547781
1729115024854168000,36.93216796875,-2.1213197708129883,-0.11743538826704025,0.11506835371255875
1729115024887501300,36.965501220703125,-2.13620924949646,-0.23326729238033295,-0.004504998680204153
1729115024920834300,36.998834228515626,-2.108644723892212,-0.34161633253097534,0.14583978056907654
1729115024954167300,37.03216723632813,-1.8780498504638672,-0.3500154912471771,-0.028938889503479004
1729115024987500300,37.06550024414062,-2.062678575515747,0.06413896381855011,-0.18004722893238068
1729115025020833300,37.098833251953124,-2.1596505641937256,0.1298050433397293,-0.11209046840667725
1729115025054166300,37.132166259765626,-1.8520125150680542,-0.01763821393251419,-0.09376505762338638
1729115025087499300,37.16549926757813,-1.5125341415405273,-0.0492495596408844,0.03565821051597595
1729115025120832300,37.19883227539062,-1.0598199367523193,-0.14431266486644745,-0.07238540053367615
1729115025154165200,37.23216528320312,-0.631463348865509,-0.015805672854185104,0.057801421731710434
1729115025187498500,37.26549853515625,-0.27740100026130676,0.06245913356542587,-0.013973130844533443
1729115025220831500,37.29883154296875,-0.06085565686225891,0.18669019639492035,-0.008551862090826035
1729115025254164500,37.33216455078125,0.06650599837303162,0.30572906136512756,0.07956285774707794
1729115025287497500,37.36549755859375,0.17538951337337494,0.47531551122665405,-0.030695075169205666
1729115025320830500,37.39883056640625,0.2459423840045929,0.5492280125617981,-0.11086877435445786
1729115025354163500,37.43216357421875,0.43950459361076355,0.23090025782585144,-0.15920206904411316
1729115025387496400,37.46549633789063,0.7494332194328308,0.13805148005485535,0.0164165198802948
1729115025420829400,37.49882934570312,1.1816840171813965,0.019318044185638428,-0.09284878522157669
1729115025454162700,37.53216259765625,1.4392324686050415,0.035505495965480804,-0.05421269312500954
1729115025487495700,37.56549560546875,1.4510676860809326,0.10063708573579788,-0.049554985016584396
1729115025520828700,37.59882861328125,1.501615285873413,0.154926136136055,-0.004581354558467865
1729115025554161700,37.63216162109375,1.5304014682769775,0.08192989230155945,-0.06765133142471313
1729115025587494700,37.66549462890625,1.786346435546875,0.13713520765304565,0.014660334214568138
1729115025620827600,37.69882763671875,1.9734947681427002,0.1435490995645523,-0.06100837141275406
1729115025654160600,37.73216064453125,2.4811089038848877,-0.014125842601060867,-0.03214583545923233
1729115025687493600,37.76549365234375,2.603278398513794,-0.0231358390301466,-0.17890189588069916
1729115025720826600,37.79882666015625,2.874112606048584,-0.08269345015287399,-0.07085828483104706
1729115025754159900,37.832159912109375,2.9364192485809326,0.018401773646473885,-0.12132953852415085
1729115025787492900,37.86549291992188,2.856398105621338,0.06383354216814041,-0.14874130487442017
1729115025820825900,37.89882592773437,2.7334651947021484,-0.04886778071522713,-0.14912308752536774
1729115025854158800,37.93215893554687,2.633057117462158,-0.04367557913064957,-0.13095037639141083
1729115025887491800,37.965491943359375,2.4769091606140137,-0.007941014133393764,-0.07467607408761978
1729115025920824800,37.998824951171876,2.3065593242645264,-0.007788302376866341,-0.15347537398338318
1729115025954157800,38.03215771484375,2.115898609161377,0.0910162404179573,-0.06276455521583557
1729115025987490800,38.06549072265625,1.9918965101242065,-0.07238540053367615,-0.17485502362251282
1729115026020823800,38.09882373046875,1.9558565616607666,-0.1474432498216629,-0.01122431829571724
1729115026054157000,38.132156982421876,1.916380524635315,-0.034131091088056564,-0.16019469499588013
1729115026087490000,38.16548999023438,1.7550405263900757,0.030466007068753242,-0.12789614498615265
1729115026120823000,38.19882299804687,1.5475815534591675,-0.007941014133393764,-0.036192700266838074
1729115026154156000,38.23215600585937,1.2361258268356323,-0.11636640131473541,-0.06306997686624527
1729115026187489000,38.265489013671875,0.8241093158721924,-0.04504998400807381,0.08498412370681763
1729115026220822000,38.298822021484376,0.3882697820663452,-0.12102411687374115,-0.01779092662036419
1729115026254155000,38.33215502929688,0.07543963938951492,-0.23655059933662415,0.06345175951719284
1729115026287488000,38.36548803710937,-0.08994726091623306,-0.4191175699234009,-0.04023956134915352
1729115026320821000,38.398821044921874,-0.06971294432878494,-0.4556920528411865,0.23838314414024353
1729115026354154200,38.432154296875,0.06612421572208405,-0.05734328553080559,-0.03764346241950989
1729115026387487200,38.4654873046875,-0.10628741979598999,0.09116895496845245,-0.11980241537094116
1729115026420820200,38.4988203125,-0.15889663994312286,0.14667969942092896,-0.13110309839248657
1729115026454153200,38.5321533203125,-0.22608983516693115,0.10796725004911423,-0.15943112969398499
1729115026487486200,38.565486328125,-0.12033691257238388,0.03321481868624687,-0.10178242623806
1729115026520819200,38.59881909179688,-0.09315420687198639,0.025350160896778107,-0.023059483617544174
1729115026554152200,38.63215209960938,-0.10529479384422302,0.06604786217212677,0.03749075159430504
1729115026587485200,38.66548510742187,-0.09956810623407364,-0.02733541466295719,0.019928891211748123
1729115026620818200,38.698818115234374,-0.10040801763534546,0.04665346071124077,0.029091600328683853
1729115026654151400,38.7321513671875,-0.09155073016881943,-0.03199312463402748,0.04527905210852623
1729115026687484400,38.765484375,-0.06581879407167435,0.012369656935334206,0.1322484314441681
1729115026720817400,38.7988173828125,-0.0561215914785862,-0.0067956759594380856,-0.021379653364419937
1729115026754150400,38.832150390625,-0.07124006003141403,0.049554985016584396,0.008170082233846188
1729115026787483400,38.8654833984375,-0.14583978056907654,-0.02351761981844902,-0.03008422814309597
1729115026820816400,38.89881640625,-0.3106921911239624,-0.001985253533348441,-0.02367033064365387
1729115026854149400,38.9321494140625,-0.5362475514411926,-0.0022906772792339325,0.01901262067258358
1729115026887482400,38.965482421875,-0.8200624585151672,0.011071606539189816,-0.0019088976550847292
1729115026920815400,38.9988154296875,-1.154043197631836,0.05566345527768135,0.0017561858985573053
1729115026954148600,39.03214868164063,-1.518718957901001,0.015194825828075409,-0.025197450071573257
1729115026987481600,39.06548168945312,-1.8988187313079834,-0.04825693368911743,0.049020491540431976
1729115027020814600,39.098814697265624,-2.2470016479492188,-0.0006108472589403391,-0.021532366052269936
1729115027054147600,39.132147705078125,-2.500274181365967,0.013667707331478596,0.004581354558467865
1729115027087480600,39.16548046875,-2.662454128265381,-0.057114217430353165,0.047111593186855316
1729115027120813600,39.1988134765625,-2.747361898422241,-0.17592400312423706,0.027182703837752342
1729115027154146600,39.232146484375,-2.7952370643615723,-0.335507869720459,-0.06971294432878494
1729115027187479600,39.2654794921875,-2.803330898284912,-0.48608171939849854,0.08651123940944672
1729115027220812500,39.2988125,-2.7620222568511963,-0.3823140263557434,-0.08605311065912247
1729115027254145800,39.33214575195313,-3.1226511001586914,0.047264307737350464,-0.06665870547294617
1729115027287478800,39.36547875976562,-3.3540096282958984,0.12079504877328873,-0.21501824259757996
1729115027320811800,39.398811767578124,-3.070500135421753,0.0293970238417387,0.01382041908800602
1729115027354144800,39.432144775390626,-2.820129156112671,0.042759306728839874,-0.11384665966033936
1729115027387477800,39.46547778320313,-2.6123647689819336,-0.0010689827613532543,-0.15622419118881226
1729115027420810800,39.49881079101562,-2.3629863262176514,0.022906772792339325,0.09338327497243881
1729115027454143700,39.53214379882812,-2.103986978530884,-0.10811996459960938,-0.10193513333797455
1729115027487476700,39.565476806640625,-1.9377602338790894,-0.022066857665777206,-0.06497887521982193
1729115027520809700,39.598809814453126,-1.861480712890625,0.07108735293149948,-0.04459185153245926
1729115027554143000,39.63214306640625,-1.7422127723693848,0.030160583555698395,-0.11812258511781693
1729115027587476000,39.66547607421875,-1.6973918676376343,0.02435753494501114,-0.08009734749794006
1729115027620809000,39.69880908203125,-1.6150038242340088,0.053983625024557114,-0.012446013279259205
1729115027654142000,39.732141845703126,-1.53047776222229,0.06704048812389374,-0.11911521852016449
1729115027687475000,39.76547485351563,-1.3424131870269775,0.09040539711713791,0.0014507622690871358
