time,seconds_elapsed,z,y,x
1730998120162207000,0.18320703125,0.00000286102294921875,-0.017773151397705078,-0.022104427218437195
1730998120200145000,0.221144775390625,0.009278297424316406,-0.01870165765285492,0.00449681282043457
1730998120238083000,0.2590830078125,0.00717926025390625,-0.0159941166639328,-0.01214650273323059
1730998120276021000,0.29702099609375,-0.00020122528076171875,-0.009616240859031677,-0.00013281404972076416
1730998120313959200,0.334959228515625,-0.0022258758544921875,-0.001735195517539978,-0.0025282353162765503
1730998120351897000,0.37289697265625,0.0026912689208984375,-0.0029916763305664062,-0.00005067884922027588
1730998120389835300,0.410835205078125,0.006512641906738281,-0.0023755282163619995,-0.00024158507585525513
1730998120427773200,0.448773193359375,0.011081695556640625,-0.004972904920578003,-0.004808925092220306
1730998120465711400,0.48671142578125,0.006615638732910156,-0.00002142786979675293,-0.002476334571838379
1730998120503649300,0.524649169921875,0.0037641525268554688,0.005023270845413208,0.009527847170829773
1730998120541587500,0.56258740234375,-0.0039310455322265625,0.007135406136512756,0.002291649580001831
1730998120579525400,0.600525390625,0.005286216735839844,0.0004783421754837036,-0.009116142988204956
1730998120617463600,0.638463623046875,0.0035886764526367188,0.0010490715503692627,-0.00186050683259964
1730998120655401500,0.6764013671875,0.004456520080566406,-0.010476738214492798,0.003268428146839142
1730998120693339600,0.714339599609375,0.0020895004272460938,0.007630929350852966,0.0022161155939102173
1730998120731277600,0.752277587890625,-0.0010232925415039062,-0.0036201030015945435,-0.007028639316558838
1730998120769215700,0.7902158203125,0.013031959533691406,-0.006375133991241455,-0.00033439695835113525
1730998120807153700,0.828153564453125,0.018782615661621094,-0.0013986527919769287,0.000009365379810333252
1730998120845091800,0.866091796875,0.007460594177246094,-0.005517303943634033,-0.006997257471084595
1730998120883029800,0.90402978515625,-0.00012874603271484375,0.0016336143016815186,-0.006453603506088257
1730998120920968000,0.941968017578125,-0.00011348724365234375,-0.0028203725814819336,-0.0038392171263694763
1730998120958905900,0.97990576171875,0.0019063949584960938,0.008681908249855042,-0.008394859731197357
1730998120996844000,1.017843994140625,-0.005835533142089844,0.0014645010232925415,-0.01007368415594101
1730998121034782000,1.055781982421875,-0.007846832275390625,-0.003535151481628418,0.006127484142780304
1730998121072720100,1.09372021484375,0.014604568481445312,0.008042469620704651,-0.0005055516958236694
1730998121110658000,1.131657958984375,-0.0064449310302734375,-0.0034868717193603516,-0.005670472979545593
1730998121148596200,1.16959619140625,0.014474868774414062,-0.007991522550582886,-0.0007499828934669495
1730998121186534100,1.2075341796875,-0.006183624267578125,0.003942832350730896,-0.016457639634609222
1730998121224472300,1.245472412109375,0.0025224685668945312,-0.0006097704172134399,-0.0005585178732872009
1730998121262410200,1.28341015625,0.011671066284179688,-0.0026850104331970215,-0.0008207932114601135
1730998121300348400,1.321348388671875,0.013172149658203125,0.008803531527519226,0.012384220957756042
1730998121338286600,1.35928662109375,-0.012495994567871094,0.010758578777313232,-0.004473678767681122
1730998121376224500,1.397224609375,0.010207176208496094,-0.003198772668838501,-0.0045815035700798035
1730998121414162700,1.43516259765625,-0.0068492889404296875,-0.007232949137687683,-0.011584602296352386
1730998121452100600,1.4731005859375,0.0073299407958984375,-0.0044248998165130615,-0.00889507681131363
1730998121490038800,1.511038818359375,-0.013185501098632812,-0.0019193291664123535,-0.001473449170589447
1730998121527976700,1.548976806640625,-0.0019636154174804688,0.0009194314479827881,-0.0010067149996757507
1730998121565915000,1.586914794921875,0.0072917938232421875,0.004981398582458496,0.004293300211429596
1730998121603852800,1.624852783203125,-0.00994873046875,0.0002983957529067993,-0.005452573299407959
1730998121641791000,1.662791015625,-0.009252548217773438,-0.00637286901473999,0.00045847147703170776
1730998121679729000,1.70072900390625,0.0007905960083007812,0.0004894286394119263,-0.012602955102920532
1730998121717667000,1.7386669921875,0.016907691955566406,-0.00632902979850769,0.0016083121299743652
1730998121755605200,1.776605224609375,0.01859760284423828,0.005048841238021851,0.010260701179504395
1730998121793543200,1.814543212890625,0.006283760070800781,0.002033144235610962,-0.004362061619758606
1730998121831481300,1.8524814453125,-0.013237953186035156,0.004470109939575195,-0.004615724086761475
1730998121869419300,1.890419189453125,0.0012559890747070312,0.0045074522495269775,0.018656283617019653
1730998121907357400,1.928357421875,-0.010189056396484375,-0.0008598566055297852,-0.014568008482456207
1730998121945295400,1.96629541015625,0.016918182373046875,0.00373232364654541,0.00452655553817749
1730998121983233500,2.004233642578125,-0.004508018493652344,0.005858287215232849,-0.007839716970920563
1730998122021171500,2.04217138671875,0.009545326232910156,0.0033598393201828003,0.00648295134305954
1730998122059109600,2.080109619140625,-0.008818626403808594,-0.008184358477592468,-0.005236588418483734
1730998122097047600,2.118047607421875,-0.0040988922119140625,0.0013850480318069458,-0.003252290189266205
1730998122134985700,2.15598583984375,0.003002166748046875,-0.006031692028045654,-0.009923972189426422
1730998122172923600,2.193923583984375,0.00016689300537109375,0.007934719324111938,-0.005278423428535461
1730998122210861800,2.23186181640625,0.0045452117919921875,-0.003351077437400818,-0.0002002120018005371
1730998122248800000,2.269800048828125,0.020387649536132812,-0.0009972155094146729,-0.00480198860168457
1730998122286738000,2.307738037109375,-0.007312774658203125,-0.000806465744972229,0.0029025599360466003
1730998122324676000,2.345676025390625,0.011188507080078125,-0.0012421607971191406,0.006901338696479797
1730998122362614000,2.383614013671875,-0.00811004638671875,-0.003267422318458557,0.0020593851804733276
1730998122400552200,2.42155224609375,0.005828857421875,0.006103768944740295,-0.009279966354370117
1730998122438490000,2.459489990234375,0.0036916732788085938,0.003892183303833008,-0.00018109381198883057
1730998122476428300,2.49742822265625,-0.001354217529296875,0.00796462595462799,-0.0042994022369384766
1730998122514366200,2.5353662109375,-0.0076141357421875,0.005666032433509827,0.007521055638790131
1730998122552304400,2.573304443359375,0.004261016845703125,-0.003268122673034668,-0.0022952407598495483
1730998122590242600,2.61124267578125,0.006939888000488281,-0.005962789058685303,-0.0022635534405708313
1730998122628180500,2.649180419921875,0.0015439987182617188,-0.0033668428659439087,-0.007033221423625946
1730998122666118700,2.68711865234375,-0.0028944015502929688,0.0057537853717803955,0.008715115487575531
1730998122704056600,2.725056640625,0.0011844635009765625,0.005346551537513733,0.0016516894102096558
1730998122741994800,2.762994873046875,-0.0034666061401367188,-0.005692720413208008,0.005899563431739807
1730998122779932700,2.8009326171875,-0.008244514465332031,-0.002854064106941223,-0.0009834840893745422
1730998122817870800,2.838870849609375,0.003574371337890625,-0.00019513070583343506,0.0035325586795806885
1730998122855808800,2.876808837890625,-0.0015859603881835938,-0.0048574358224868774,-0.0032092779874801636
1730998122893747000,2.914746826171875,0.002353668212890625,-0.00009645521640777588,0.0014183968305587769
1730998122931684900,2.952684814453125,-0.004181861877441406,0.008673325181007385,-0.004960536956787109
1730998122969623000,2.990623046875,-0.004361152648925781,0.0010706931352615356,0.0018912702798843384
1730998123007561000,3.02856103515625,0.008417129516601562,-0.012616604566574097,-0.007438868284225464
1730998123045499100,3.0664990234375,0.0028591156005859375,-0.0077635496854782104,-0.007336288690567017
1730998123083437300,3.104437255859375,-0.011267662048339844,-0.0025566518306732178,0.002297349274158478
1730998123121375200,3.142375244140625,0.008038520812988281,-0.0029256492853164673,-0.0022933781147003174
1730998123159313400,3.1803134765625,0.00804901123046875,0.006799370050430298,-0.0021990984678268433
1730998123197251300,3.218251220703125,0.009314537048339844,-0.0004767477512359619,0.006656840443611145
1730998123235189500,3.256189453125,-0.009282112121582031,-0.004924938082695007,-0.007533840835094452
1730998123273127400,3.29412744140625,-0.0023708343505859375,0.0004681199789047241,0.006649427115917206
1730998123311065600,3.332065673828125,-0.000102996826171875,0.002659156918525696,0.004104897379875183
1730998123349003500,3.37000341796875,-0.010890960693359375,0.0047266483306884766,-0.0025483891367912292
1730998123386941700,3.407941650390625,0.015911102294921875,-0.00243242084980011,0.013501621782779694
1730998123424879600,3.445879638671875,-0.009546279907226562,-0.00205838680267334,-0.003106936812400818
1730998123462817800,3.48381787109375,0.004547119140625,0.002585083246231079,0.012609846889972687
1730998123500755700,3.521755615234375,0.011842727661132812,0.002830609679222107,0.012055903673171997
1730998123538694000,3.55969384765625,-0.007147789001464844,-0.00011399388313293457,0.00023599714040756226
1730998123576632000,3.597632080078125,-0.0051174163818359375,0.00881202518939972,0.004808187484741211
1730998123614570000,3.635570068359375,-0.005318641662597656,-0.002450987696647644,-0.0044244080781936646
1730998123652508200,3.673508056640625,-0.0021009445190429688,0.004544958472251892,-0.003910742700099945
1730998123690446000,3.711446044921875,0.00742340087890625,-0.004275903105735779,-0.0036846399307250977
1730998123728384300,3.74938427734375,0.0005931854248046875,-0.004462331533432007,-0.0011169761419296265
1730998123766322200,3.787322265625,0.005175590515136719,-0.0014926940202713013,0.0018417760729789734
1730998123804260400,3.82526025390625,-0.0063076019287109375,0.0029961764812469482,-0.0008446201682090759
1730998123842198300,3.8631982421875,-0.01027679443359375,0.0006471574306488037,-0.002823092043399811
1730998123880136400,3.901136474609375,0.008141517639160156,0.08035437762737274,-0.039753831923007965
1730998123918074400,3.939074462890625,0.004336357116699219,0.3510393798351288,0.014532208442687988
1730998123956012500,3.977012451171875,0.024311065673828125,0.5952524542808533,0.06219964101910591
1730998123993950500,4.014950439453125,-0.008123397827148438,0.9247249364852905,-0.11652199923992157
1730998124031888600,4.052888671875,0.10531806945800781,0.7896008491516113,0.03324887901544571
1730998124069826600,4.09082666015625,-0.0072727203369140625,0.629864513874054,-0.08731111139059067
1730998124107764700,4.1287646484375,0.058508872985839844,0.6038267612457275,0.05585906654596329
1730998124145702700,4.16670263671875,-0.2659950256347656,0.7224862575531006,0.011423856019973755
1730998124183640800,4.204640869140625,0.4203071594238281,0.7459244728088379,0.06888457387685776
1730998124221578800,4.242578857421875,0.20961475372314453,0.34363311529159546,-0.29003164172172546
1730998124259517000,4.280516845703125,0.22173690795898438,0.034319400787353516,0.5018470883369446
1730998124297454800,4.318454833984375,-0.4726896286010742,-0.1543644666671753,-0.04100058227777481
1730998124335393000,4.35639306640625,-0.0476531982421875,-0.24758893251419067,-0.16268160939216614
1730998124373331000,4.3943310546875,0.17617034912109375,-0.34070640802383423,0.032274290919303894
1730998124411269000,4.43226904296875,-0.08130550384521484,-0.6140042543411255,-0.24374696612358093
1730998124449207000,4.47020703125,-0.603734016418457,-0.3415609896183014,-0.1564444899559021
1730998124487145200,4.508145263671875,-0.44608402252197266,-0.43687963485717773,-0.07574256509542465
1730998124525083100,4.546083251953125,-0.0010166168212890625,-0.4834015667438507,-0.1358690708875656
1730998124563021300,4.584021240234375,0.024328231811523438,-0.6449966430664062,0.04979667067527771
1730998124600959200,4.621959228515625,0.7214107513427734,-0.6935598850250244,0.022420942783355713
1730998124638897400,4.6598974609375,-0.3311309814453125,-0.44704732298851013,-0.24829742312431335
1730998124676835300,4.69783544921875,1.4609508514404297,-0.8544776439666748,-0.34088432788848877
1730998124714773500,4.7357734375,0.8302488327026367,-0.14394479990005493,-0.38057518005371094
1730998124752711400,4.77371142578125,0.00011157989501953125,-0.20774613320827484,0.17338302731513977
1730998124790649600,4.811649658203125,-0.15575122833251953,-0.06003132462501526,-0.40592247247695923
1730998124828587500,4.84958740234375,0.1040334701538086,-0.30375438928604126,0.028010249137878418
1730998124866525700,4.887525634765625,-0.029541015625,-0.09779657423496246,0.04471060633659363
1730998124904463600,4.925463623046875,0.031760215759277344,-0.2589045464992523,0.0032816082239151
1730998124942401800,4.96340185546875,-0.0939626693725586,0.04586037993431091,-0.2800273895263672
1730998124980339700,5.001339599609375,-0.003937721252441406,0.21538212895393372,-0.13845813274383545
1730998125018278000,5.03927783203125,-0.08586788177490234,0.3511899709701538,0.3336586654186249
1730998125056215800,5.0772158203125,0.0717935562133789,0.16929571330547333,0.07282795011997223
1730998125094154000,5.115154052734375,-0.4473867416381836,1.4418236017227173,-0.8163646459579468
1730998125132092000,5.153091796875,0.09958553314208984,0.8238740563392639,-0.43761369585990906
1730998125170030000,5.191030029296875,0.3439044952392578,0.6442452669143677,-0.05915810167789459
1730998125207968000,5.228968017578125,0.5433549880981445,0.40045249462127686,0.5040773153305054
1730998125245906200,5.26690625,-0.016427993774414062,0.29575756192207336,-0.03366754949092865
1730998125283844000,5.304843994140625,-0.13746261596679688,-0.19481109082698822,-0.5467296838760376
1730998125321782300,5.3427822265625,-0.17541790008544922,-0.03005024790763855,-0.27326712012290955
1730998125359720200,5.38072021484375,0.8455963134765625,-0.6708850860595703,0.07099220156669617
1730998125397658400,5.418658447265625,2.5940942764282227,-2.152683734893799,-0.08526571840047836
1730998125435596300,5.45659619140625,2.401948928833008,-0.6327742338180542,-0.20430868864059448
1730998125473534500,5.494534423828125,-0.19385719299316406,-0.06081187725067139,0.19812200963497162
1730998125511472400,5.532472412109375,-0.4831571578979492,-0.4818854331970215,-0.07513359189033508
1730998125549410600,5.57041064453125,-1.0533323287963867,-0.06199759244918823,0.0938059464097023
1730998125587348500,5.608348388671875,-0.664210319519043,-0.6264146566390991,-0.017529867589473724
1730998125625286700,5.64628662109375,0.06744766235351562,-0.512287974357605,-0.04686356335878372
1730998125663224600,5.684224609375,0.8183536529541016,-0.7515210509300232,-0.003438130021095276
1730998125701162800,5.722162841796875,0.11403942108154297,-0.6593644618988037,-0.2685602307319641
1730998125739100700,5.7601005859375,0.07479190826416016,-0.08866845071315765,-0.10900401324033737
1730998125777038800,5.798038818359375,0.4998149871826172,-0.3206530809402466,0.4784749746322632
1730998125814976800,5.835976806640625,-0.20464134216308594,-0.7274526953697205,-0.014283828437328339
1730998125852915000,5.8739150390625,-0.24990272521972656,-0.8015369772911072,-0.26862430572509766
1730998125890852900,5.911852783203125,-0.5667591094970703,-0.5658527612686157,-0.29243147373199463
1730998125928791000,5.949791015625,-1.328923225402832,0.961700439453125,0.35441651940345764
1730998125966729000,5.98772900390625,0.022922515869140625,0.2561829090118408,-0.06838065385818481
1730998126004667100,6.025667236328125,0.9981460571289062,0.24969708919525146,0.20919188857078552
1730998126042605000,6.06360498046875,-1.0051679611206055,0.6593272686004639,0.029612332582473755
1730998126080543200,6.101543212890625,-0.4644184112548828,0.6662482619285583,-0.032081007957458496
1730998126118481200,6.139481201171875,-0.8675146102905273,-0.10510498285293579,-0.5393394827842712
1730998126156419000,6.177419189453125,0.15877819061279297,-0.5729202032089233,-0.19974055886268616
1730998126194357200,6.215357177734375,0.03654193878173828,0.3344705402851105,0.09393822401762009
1730998126232295200,6.253295166015625,-1.2253484725952148,-0.4161859452724457,-0.03942068666219711
1730998126270233300,6.2912333984375,0.7922582626342773,-1.0111057758331299,-0.2551364600658417
1730998126308171300,6.329171142578125,0.7958106994628906,-0.8603174686431885,0.16533643007278442
1730998126346109400,6.367109375,0.11647415161132812,-0.8258993625640869,0.033315520733594894
1730998126384047400,6.40504736328125,-0.30001354217529297,-0.37596994638442993,-0.074480801820755
1730998126421985500,6.442985595703125,-0.40655040740966797,0.16116559505462646,-0.03699476271867752
1730998126459923500,6.48092333984375,-1.2261133193969727,0.5730199813842773,-0.02803990989923477
1730998126497861600,6.518861572265625,2.2923202514648438,-0.38489440083503723,-0.017945952713489532
1730998126535799600,6.556799560546875,1.7706804275512695,-0.37226033210754395,-0.11591675132513046
1730998126573737700,6.59473779296875,0.6609935760498047,-0.4129069745540619,0.0041520074009895325
1730998126611675600,6.632675537109375,-0.8019657135009766,-0.07581387460231781,-0.32860466837882996
1730998126649613800,6.67061376953125,-0.48931121826171875,-0.014844998717308044,-0.35616350173950195
1730998126687551700,6.7085517578125,-0.07494831085205078,0.30525779724121094,-0.12240041792392731
1730998126725490000,6.746489990234375,0.22613048553466797,1.219355821609497,0.4624495208263397
1730998126763427800,6.784427734375,0.28400707244873047,-0.0674087256193161,-0.04493524506688118
1730998126801366000,6.822365966796875,0.3688383102416992,-0.2030245065689087,0.3182988166809082
1730998126839304000,6.860303955078125,-0.015183448791503906,-0.14106176793575287,0.3310279846191406
1730998126877241900,6.898241943359375,-0.3116788864135742,0.414279043674469,0.6889040470123291
1730998126915180000,6.936179931640625,0.8727264404296875,0.2093835026025772,-0.007929325103759766
1730998126953118000,6.974117919921875,1.3278570175170898,-0.17645864188671112,0.4378663897514343
1730998126991056100,7.01205615234375,3.075442314147949,-0.31381139159202576,1.1112303733825684
1730998127028994000,7.049994140625,0.2935009002685547,-0.16313952207565308,0.43190035223960876
1730998127066932200,7.08793212890625,0.3056020736694336,-0.44379645586013794,0.14020660519599915
1730998127104870100,7.1258701171875,0.13167572021484375,-0.06099569797515869,0.6222517490386963
1730998127142808300,7.163808349609375,-0.25739288330078125,-0.04075014591217041,0.18483063578605652
1730998127180746200,7.201746337890625,-0.15575313568115234,-0.3277321755886078,0.42339417338371277
1730998127218684400,7.239684326171875,-2.888676166534424,0.6545397043228149,-0.3646228611469269
1730998127256622300,7.277622314453125,0.2935800552368164,-0.9960371255874634,0.20052659511566162
1730998127294560500,7.315560546875,0.5833473205566406,-0.2617475390434265,0.36613577604293823
1730998127332498400,7.35349853515625,0.8165731430053711,-0.060164809226989746,0.4785861074924469
1730998127370436600,7.3914365234375,1.4463443756103516,0.3515323996543884,0.7831095457077026
1730998127408374500,7.42937451171875,-1.4250621795654297,1.0755656957626343,0.6258045434951782
1730998127446312400,7.4673125,-0.9567890167236328,0.48138996958732605,0.5407119393348694
1730998127484250600,7.505250732421875,0.5080747604370117,0.24756614863872528,1.2045550346374512
1730998127522188500,7.5431884765625,-0.38045310974121094,0.8581690788269043,0.4492718577384949
1730998127560126700,7.581126708984375,0.9439878463745117,0.3996908962726593,0.4991014301776886
1730998127598064600,7.619064697265625,2.313140869140625,-0.48798927664756775,0.8713910579681396
1730998127636002800,7.6570029296875,0.1660776138305664,0.3129221498966217,-0.11482419818639755
1730998127673940700,7.694940673828125,-1.0888137817382812,0.16425585746765137,0.6386109590530396
1730998127711878700,7.732878662109375,-0.6432332992553711,-0.14578723907470703,-0.27303963899612427
1730998127749816800,7.77081689453125,0.5901203155517578,-0.8338863253593445,-0.3022412955760956
1730998127787754800,7.808754638671875,-0.3860015869140625,0.11264608055353165,0.039447300136089325
1730998127825693000,7.84669287109375,-1.2827272415161133,-0.4747627377510071,0.2035837024450302
1730998127863630800,7.884630859375,0.9966535568237305,0.5798047184944153,0.5458204746246338
1730998127901569000,7.922569091796875,-0.7001047134399414,0.053917109966278076,-0.05454304814338684
1730998127939507000,7.9605068359375,0.3481731414794922,0.49067819118499756,-0.32296839356422424
1730998127977445000,7.998445068359375,0.33547115325927734,-0.0157061368227005,-0.10099215060472488
1730998128015383000,8.036383056640625,-2.765995979309082,0.16136358678340912,0.15270181000232697
1730998128053321200,8.0743212890625,0.26845645904541016,-0.21803796291351318,0.5239023566246033
1730998128091259100,8.112259033203125,-0.1647968292236328,0.0037627220153808594,0.17062188684940338
1730998128129197000,8.150197021484376,0.31905269622802734,0.1439305990934372,-0.11283820122480392
1730998128167135200,8.18813525390625,0.5011663436889648,-0.08710326999425888,-0.05409230291843414
1730998128205073200,8.2260732421875,-1.416799545288086,1.0510886907577515,-0.1816425919532776
1730998128243011300,8.26401123046875,-2.6456551551818848,1.0125231742858887,-0.4098716974258423
1730998128280949200,8.30194921875,-0.8832187652587891,0.8752963542938232,1.1954063177108765
1730998128318887400,8.339887451171874,-0.6022062301635742,0.1610744297504425,-0.5860783457756042
1730998128356825300,8.377825439453124,0.19771480560302734,0.3687163293361664,-0.25010353326797485
1730998128394763500,8.415763427734374,-1.097442626953125,1.0932241678237915,-0.2159120738506317
1730998128432701400,8.453701416015624,-1.3229312896728516,-0.016084665432572365,1.0721596479415894
1730998128470639600,8.4916396484375,0.5516996383666992,-0.15967191755771637,0.4167386591434479
1730998128508577500,8.52957763671875,0.5783967971801758,-0.865341305732727,-0.35571640729904175
1730998128546515500,8.567515380859374,0.8770465850830078,-1.2839202880859375,0.4659995436668396
1730998128584453600,8.60545361328125,0.7851581573486328,-0.2586299479007721,0.35805365443229675
1730998128622391600,8.6433916015625,1.2249650955200195,0.20406474173069,0.17496931552886963
1730998128660329700,8.681329833984375,0.6778497695922852,0.020673178136348724,0.10000806301832199
1730998128698267600,8.719267578125,0.6553745269775391,0.09975200891494751,0.11792262643575668
1730998128736205800,8.757205810546875,1.029902458190918,0.02984490990638733,-0.5184882283210754
1730998128774143700,8.795143798828125,-0.037128448486328125,-1.268609881401062,0.12174807488918304
1730998128812082000,8.83308203125,-1.6883573532104492,-0.7650076746940613,0.472078412771225
1730998128850019800,8.871019775390625,0.2593708038330078,-0.580043613910675,-0.5587046146392822
1730998128887957800,8.908957763671875,-1.1423063278198242,0.0551878921687603,-0.11608334630727768
1730998128925896000,8.94689599609375,-2.695920944213867,-1.5737357139587402,0.10959238559007645
1730998128963833900,8.984833740234375,-0.9789142608642578,-0.27419087290763855,0.0938870906829834
1730998129001772000,9.02277197265625,-1.0104045867919922,-0.4171302020549774,0.253591924905777
1730998129039710000,9.0607099609375,-0.5836830139160156,-0.26807355880737305,-0.39288121461868286
1730998129077648000,9.09864794921875,0.5718002319335938,-0.13211983442306519,-0.005321945995092392
1730998129115586000,9.1365859375,-0.9401607513427734,0.9179062247276306,-0.34170758724212646
1730998129153524000,9.17452392578125,0.9999799728393555,-0.5138859152793884,-0.3262341618537903
1730998129191462100,9.212462158203126,-0.05634593963623047,-0.635289192199707,-0.5225682258605957
1730998129229400000,9.250400146484376,0.2726764678955078,-1.2730804681777954,-0.8180737495422363
1730998129267338200,9.288338134765626,-0.3631124496459961,-1.0532490015029907,-0.7164754867553711
1730998129305276200,9.326276123046876,0.10619449615478516,-1.4799449443817139,0.08867266774177551
1730998129343214000,9.364214111328126,2.236823081970215,-0.14947949349880219,0.5620356798171997
1730998129381152300,9.40215234375,-1.646230697631836,0.6388609409332275,0.1089986264705658
1730998129419090200,9.440090087890624,0.7216806411743164,0.19766303896903992,0.3305132985115051
1730998129457028400,9.4780283203125,0.5351629257202148,0.055375464260578156,-0.5007795691490173
1730998129494966300,9.51596630859375,0.4018239974975586,-0.16966570913791656,-0.2883245646953583
1730998129532904400,9.553904541015624,0.3519105911254883,-1.212570309638977,0.216651052236557
1730998129570842400,9.59184228515625,4.416545867919922,-0.3490030765533447,-0.6009951233863831
1730998129608780500,9.629780517578125,0.8402118682861328,-0.8222622871398926,-0.7568677663803101
1730998129646718500,9.667718505859375,0.900294303894043,-0.2939412593841553,-0.6678916811943054
1730998129684656400,9.705656494140625,0.3003511428833008,-0.21435317397117615,-0.8093593120574951
1730998129722594600,9.743594482421875,0.7333965301513672,-0.015528291463851929,-0.2497004270553589
1730998129760532500,9.781532470703125,0.8368377685546875,0.163993701338768,-0.40700316429138184
1730998129798470700,9.819470703125,-2.9475250244140625,2.054340362548828,-0.49850693345069885
1730998129836408600,9.85740869140625,0.13285446166992188,-0.26603376865386963,-0.4178473651409149
1730998129874346800,9.8953466796875,0.8037080764770508,0.35494011640548706,-0.5694729685783386
1730998129912284700,9.93328466796875,-0.09527778625488281,0.5524500608444214,-0.6930830478668213
1730998129950222600,9.97122265625,0.09853363037109375,-0.08956462144851685,-0.7213347554206848
1730998129988160800,10.009160888671875,-1.315342903137207,-0.40059828758239746,-0.21718311309814453
1730998130026098700,10.0470986328125,1.177790641784668,-0.2596091330051422,-0.3083840012550354
1730998130064036900,10.085036865234375,1.7007551193237305,0.21320222318172455,-0.39163684844970703
1730998130101974800,10.122974853515625,1.7887401580810547,0.0679059848189354,0.06610555201768875
1730998130139913000,10.160912841796875,0.2736959457397461,0.4291762113571167,-0.036243751645088196
1730998130177851000,10.198850830078126,-0.5149326324462891,0.3335133194923401,-0.7011430859565735
1730998130215785700,10.23678564453125,-0.8454627990722656,0.2249264270067215,-0.6814951300621033
1730998130253723600,10.2747236328125,0.37500858306884766,0.17989195883274078,-0.8091526627540588
1730998130291661800,10.312661865234375,-0.1029195785522461,-1.5113677978515625,-0.6188272833824158
1730998130329599700,10.350599853515625,-1.4597492218017578,0.4156297743320465,-0.8771371841430664
1730998130367538000,10.388537841796875,-2.235645294189453,0.08553068339824677,-0.7083078622817993
1730998130405475800,10.426475830078125,-1.636061668395996,-1.575336217880249,0.03668054938316345
1730998130443413800,10.464413818359375,1.2701053619384766,0.036234475672245026,-0.7754213809967041
1730998130481352000,10.50235205078125,-1.6520652770996094,-0.45761966705322266,-0.646038830280304
1730998130519289900,10.540289794921875,-0.3941183090209961,0.36651650071144104,-0.7125275135040283
1730998130557228000,10.57822802734375,0.8368148803710938,-0.638535737991333,-0.2566283941268921
1730998130595166000,10.616166015625,-0.8164997100830078,0.4427180886268616,-0.08222518861293793
1730998130633104000,10.654103759765626,0.4312324523925781,0.04974960535764694,0.8656796216964722
1730998130671042000,10.6920419921875,1.4755659103393555,1.2021900415420532,1.0073401927947998
1730998130708980000,10.72997998046875,0.5347862243652344,1.0735372304916382,0.683656632900238
1730998130746918100,10.767918212890624,-0.13727760314941406,0.5222250819206238,-0.45791110396385193
1730998130784856000,10.80585595703125,-1.9656972885131836,-0.26651686429977417,-0.229178324341774
1730998130822794200,10.843794189453124,-1.7806339263916016,0.5171965956687927,0.2743843197822571
1730998130860732200,10.881732177734374,-0.864741325378418,0.20030778646469116,0.06879264116287231
1730998130898670000,10.919670166015624,1.7017145156860352,-0.5253052711486816,0.2734910845756531
1730998130936608300,10.957608154296874,-1.1118640899658203,-1.318590521812439,0.3059576749801636
1730998130974546200,10.995546142578124,1.100193977355957,0.25078868865966797,0.5435329675674438
1730998131012484000,11.033484130859375,0.6968307495117188,0.12949351966381073,0.9107891321182251
1730998131050422300,11.07142236328125,0.04543590545654297,-1.0590782165527344,0.1446526199579239
1730998131088360200,11.109360107421875,2.5082578659057617,-0.5807185173034668,0.7175134420394897
1730998131126298400,11.14729833984375,-0.23457622528076172,0.3418610692024231,0.36496075987815857
1730998131164236300,11.185236328125,-1.0153369903564453,-0.07800126075744629,0.8423444628715515
1730998131202174500,11.223174560546875,1.3512907028198242,-1.3067936897277832,0.7628077268600464
1730998131240112400,11.2611123046875,0.8554105758666992,-0.18616271018981934,1.306403398513794
1730998131278050300,11.29905029296875,1.7634010314941406,-0.7628510594367981,0.6618277430534363
1730998131315988500,11.336988525390625,0.3901519775390625,-0.33271434903144836,0.1756311058998108
1730998131353926400,11.374926513671875,-0.5425567626953125,-0.32770124077796936,2.070335626602173
1730998131391864600,11.412864501953125,-1.4823551177978516,0.08481048047542572,0.7171070575714111
1730998131429802500,11.450802490234375,-1.023183822631836,0.4406600892543793,0.5130597352981567
1730998131467740400,11.488740478515625,0.6186609268188477,-0.9862350821495056,0.5140870213508606
1730998131505678600,11.5266787109375,-0.06697845458984375,-0.7384307384490967,0.883979082107544
1730998131543616500,11.564616455078125,-1.5326786041259766,-0.6788926720619202,-0.19316792488098145
1730998131581554700,11.6025546875,-1.918034553527832,0.5231200456619263,0.20747016370296478
1730998131619492600,11.64049267578125,-0.6543807983398438,0.07552763819694519,-0.07619404792785645
1730998131657430500,11.678430419921876,0.13963985443115234,-0.05183170735836029,-0.0280325785279274
1730998131695368700,11.71636865234375,-1.4243555068969727,-0.6445339918136597,0.8763936161994934
1730998131733306600,11.754306640625,0.156005859375,0.3983953595161438,0.5933884382247925
1730998131771244800,11.792244873046876,-0.1400613784790039,0.03995652496814728,-0.24511952698230743
1730998131809182700,11.8301826171875,0.10508155822753906,0.11504034698009491,-0.3223839998245239
1730998131847120600,11.86812060546875,-0.16483497619628906,0.0033737272024154663,0.2797897756099701
1730998131885058800,11.906058837890624,-0.4309263229370117,-0.05013497173786163,0.6114540100097656
1730998131922996700,11.943996826171874,-0.45069122314453125,-0.6027074456214905,0.43210315704345703
1730998131960935000,11.981934814453124,-0.3745765686035156,-0.06968317925930023,-0.11528952419757843
1730998131998872800,12.019872802734374,-2.2739152908325195,0.3746495246887207,0.3316878080368042
1730998132036811000,12.05781103515625,-0.6603231430053711,0.4150385856628418,0.1364239901304245
1730998132074749000,12.0957490234375,-0.026276588439941406,0.4414624869823456,-0.25300899147987366
1730998132112686800,12.133686767578125,0.031152725219726562,0.5557724237442017,-0.30226749181747437
1730998132150625000,12.171625,-1.5242195129394531,0.8342581987380981,-0.14594116806983948
1730998132188563000,12.20956298828125,-1.1995534896850586,1.1715703010559082,0.14154842495918274
1730998132226500900,12.2475009765625,-1.310323715209961,0.5998467206954956,-0.24926090240478516
1730998132264439000,12.28543896484375,-1.0535955429077148,0.34418755769729614,-0.4678615927696228
1730998132302377000,12.323376953125,-2.7506103515625,0.29602494835853577,0.16021214425563812
1730998132340315000,12.36131494140625,-1.0449905395507812,0.6629841327667236,-0.466543585062027
1730998132378253000,12.399253173828125,0.5310220718383789,-0.5250856280326843,0.2214258462190628
1730998132416191000,12.43719091796875,0.3432636260986328,1.0097311735153198,0.08168630301952362
1730998132454129200,12.475129150390625,0.08632278442382812,-0.8673357367515564,-0.6704179644584656
1730998132492067000,12.513067138671875,0.5581293106079102,0.00564083456993103,0.49686479568481445
1730998132530005000,12.5510048828125,0.8562688827514648,-0.5432547926902771,-0.2046511173248291
1730998132567943200,12.588943115234375,0.8417930603027344,-1.6249197721481323,-0.18876636028289795
1730998132605881000,12.626881103515625,1.1815004348754883,-0.28360825777053833,-0.07642783224582672
1730998132643819300,12.6648193359375,-0.6313257217407227,0.3514036536216736,0.20342019200325012
1730998132681757200,12.702757080078126,-1.8732843399047852,0.004334211349487305,-0.48729658126831055
1730998132719695000,12.740695068359376,0.11408615112304688,-0.924562931060791,0.7204253077507019
1730998132757633300,12.77863330078125,-0.7154502868652344,-0.01988235116004944,-0.1622302383184433
1730998132795571200,12.8165712890625,-0.14401912689208984,0.11372128874063492,-0.9154118299484253
1730998132833509400,12.85450927734375,-0.26097774505615234,0.9172775745391846,0.08091793209314346
1730998132871447300,12.892447265625,-0.2406597137451172,0.6171523928642273,-0.6988535523414612
1730998132909385200,12.93038525390625,-0.8669805526733398,-0.6538748741149902,-0.1497018039226532
1730998132947323400,12.968323486328124,0.8961410522460938,-0.5916159152984619,0.727999746799469
1730998132985261300,13.00626123046875,2.008584976196289,-1.8813254833221436,0.2106902003288269
1730998133023199500,13.044199462890624,-0.21938419342041016,0.012141749262809753,-0.2751115560531616
1730998133061137400,13.082137451171874,-0.13840675354003906,-0.48828667402267456,-0.5238605737686157
1730998133099075300,13.120075439453124,0.012461662292480469,-1.281666874885559,-1.1442620754241943
1730998133137013500,13.158013427734375,-0.2507896423339844,-0.018744371831417084,0.345104455947876
1730998133174951400,13.195951416015625,-3.8826022148132324,0.48782795667648315,0.4226592183113098
1730998133212889600,13.2338896484375,1.0650386810302734,-0.35912108421325684,1.6435399055480957
1730998133250827500,13.27182763671875,0.4786109924316406,0.4831705093383789,-1.500736117362976
1730998133288765400,13.309765380859375,-1.5077905654907227,-0.5786868929862976,-0.8837252259254456
1730998133326703600,13.34770361328125,0.8965206146240234,0.3327602744102478,-0.06229608505964279
1730998133364641500,13.3856416015625,-1.730240821838379,-1.2639069557189941,0.19891910254955292
1730998133402579500,13.423579345703125,-0.15163421630859375,-1.3701202869415283,0.5295661687850952
1730998133440517600,13.461517578125,-0.08893680572509766,-1.663557529449463,0.2155698984861374
1730998133478455600,13.49945556640625,-0.2798137664794922,-1.5118014812469482,-0.11230699717998505
1730998133516393500,13.5373935546875,-2.047701835632324,-0.7853233814239502,-0.6189813017845154
1730998133554331600,13.57533154296875,0.5742368698120117,-2.3494787216186523,-1.1912736892700195
1730998133592269600,13.61326953125,0.7353086471557617,-1.7639235258102417,0.10271678864955902
1730998133630207700,13.651207763671875,-0.7461137771606445,-1.8005800247192383,0.1793271005153656
1730998133668145700,13.689145751953125,-0.1468667984008789,-2.147653341293335,0.06450381875038147
1730998133706083600,13.72708349609375,0.05417346954345703,-1.8249032497406006,-0.08609992265701294
1730998133744021800,13.765021728515626,-0.16503047943115234,-1.8404896259307861,0.1763211190700531
1730998133781959700,13.802959716796876,-0.3693275451660156,-1.8219938278198242,-0.12009074538946152
1730998133819897600,13.840897705078126,-0.10152435302734375,-1.8953087329864502,-0.12032465636730194
1730998133857835800,13.878835693359376,-0.05331707000732422,-1.541747808456421,0.1752978265285492
1730998133895773700,13.916773681640626,0.02324676513671875,-1.120831847190857,-0.2835027277469635
1730998133933712000,13.9547119140625,-0.01799297332763672,-0.4794418215751648,0.17653638124465942
1730998133971649800,13.99264990234375,0.021338462829589844,-0.1016647219657898,-0.12306059151887894
1730998134009587700,14.030587646484374,-0.00830841064453125,0.41500380635261536,-0.005577124655246735
1730998134047526000,14.06852587890625,0.0009031295776367188,0.7260853052139282,0.10050235688686371
1730998134085463800,14.1064638671875,0.012880325317382812,0.8207740187644958,-0.052936431020498276
1730998134123401700,14.144401611328124,0.00814056396484375,0.9475191235542297,0.012328866869211197
1730998134161340000,14.18233984375,0.008164405822753906,0.9835617542266846,-0.021316450089216232
1730998134199277800,14.22027783203125,0.04143333435058594,0.8678009510040283,-0.04930294677615166
1730998134237216000,14.258216064453125,0.017728805541992188,0.7553443312644958,-0.016675863415002823
1730998134275154000,14.29615380859375,0.0076503753662109375,0.7057805061340332,0.03630102053284645
1730998134313091800,14.334091796875,-0.0035953521728515625,0.6192231178283691,-0.051313724368810654
1730998134351030000,14.372030029296875,0.028717041015625,0.4753757417201996,0.008879199624061584
1730998134388968000,14.409968017578125,-0.005275726318359375,0.36180442571640015,-0.013000726699829102
1730998134426906000,14.447906005859375,-0.000171661376953125,0.2722735106945038,-0.016842126846313477
1730998134464844000,14.485843994140625,0.013167381286621094,0.21256017684936523,0.0024089477956295013
1730998134502782000,14.523781982421875,0.010621070861816406,0.17924949526786804,-0.021667130291461945
1730998134540720000,14.56172021484375,0.00168609619140625,0.16188819706439972,-0.0019814223051071167
1730998134578658000,14.599657958984375,-0.0047779083251953125,0.13964292407035828,-0.01443018764257431
1730998134616596000,14.637595947265625,0.030895233154296875,0.10587992519140244,-0.05847041308879852
1730998134654534100,14.6755341796875,-0.0021038055419921875,0.14056237041950226,-0.011674001812934875
1730998134692472000,14.71347216796875,0.07486724853515625,0.10637294501066208,-0.2411424070596695
1730998134730410000,14.751409912109375,0.09851360321044922,-0.06531065702438354,0.1155875101685524
1730998134768348200,14.78934814453125,0.15702438354492188,-0.02078978717327118,-0.03569823503494263
1730998134806286000,14.8272861328125,-0.037994384765625,-0.11198015511035919,-0.36593347787857056
1730998134844224000,14.86522412109375,-0.02915668487548828,-0.0065382421016693115,-0.619172215461731
1730998134882162200,14.903162109375,0.13760852813720703,-0.037887781858444214,-0.6771984100341797
1730998134920100000,14.94110009765625,0.058556556701660156,-0.2273053377866745,-0.33966052532196045
1730998134958038300,14.979038330078126,-0.0637063980102539,-0.16528365015983582,-0.08326917886734009
1730998134995976200,15.01697607421875,-0.050850868225097656,0.13289430737495422,0.2532835304737091
1730998135033914000,15.0549140625,0.02291393280029297,0.13495764136314392,0.3627017140388489
1730998135071852300,15.092852294921874,0.024443626403808594,0.07060419023036957,0.37854236364364624
1730998135109790200,15.130790283203124,0.02196788787841797,0.16017559170722961,0.46120697259902954
1730998135147728100,15.16872802734375,-0.07245254516601562,0.1767348200082779,0.25387951731681824
1730998135185666300,15.206666259765624,0.16097259521484375,-0.09491635113954544,0.12079187482595444
1730998135223604200,15.244604248046874,-0.09103965759277344,0.07851551473140717,0.13249166309833527
1730998135261542400,15.28254248046875,-0.0807037353515625,0.254434734582901,0.1684620976448059
1730998135299480300,15.320480224609375,0.01832866668701172,0.1254911720752716,0.24446846544742584
1730998135337418200,15.358418212890625,-0.025618553161621094,0.0491810217499733,0.11709046363830566
1730998135375356400,15.3963564453125,-0.021108627319335938,0.07023805379867554,-0.021019116044044495
1730998135413294300,15.43429443359375,0.040444374084472656,0.040501028299331665,0.038630589842796326
1730998135451232300,15.472232177734375,0.08404827117919922,-0.13718008995056152,0.24113737046718597
1730998135489170400,15.51017041015625,-0.14735889434814453,0.06640711426734924,-0.10495835542678833
1730998135527108400,15.5481083984375,0.1185455322265625,-0.45510631799697876,0.444892019033432
1730998135565046500,15.586046630859375,0.01944732666015625,-0.5244405269622803,0.23556922376155853
1730998135602984400,15.623984375,-0.001617431640625,-0.4888671934604645,0.20113348960876465
1730998135640922400,15.66192236328125,0.007473945617675781,-0.4474712908267975,0.0968342274427414
1730998135678860000,15.699860107421875,0.02675628662109375,-0.30948686599731445,-0.3442647159099579
1730998135716798500,15.737798583984375,0.001621246337890625,0.014232933521270752,-0.14576008915901184
1730998135754736400,15.775736328125,0.022927284240722656,0.17432203888893127,-0.058592576533555984
1730998135792674600,15.813674560546875,-0.02150440216064453,0.2278796136379242,-0.12629267573356628
1730998135830612500,15.851612548828125,0.0036830902099609375,0.2569199800491333,-0.028400149196386337
1730998135868550400,15.88955029296875,-0.012791633605957031,0.2876889109611511,-0.0049345288425683975
1730998135906488600,15.927488525390626,0.0017805099487304688,0.23272112011909485,-0.04303702339529991
1730998135944426500,15.965426513671876,-0.0024271011352539062,0.1313706636428833,-0.05502607300877571
1730998135982364400,16.003364501953126,0.011278152465820312,0.011339902877807617,-0.07286543399095535
1730998136020302600,16.041302490234376,0.013327598571777344,-0.04532911628484726,-0.04672420769929886
1730998136058240500,16.079240478515626,0.0033473968505859375,-0.05128163844347,0.024444831535220146
1730998136096178700,16.1171787109375,-0.0046749114990234375,-0.037232302129268646,-0.01518186740577221
1730998136134116600,16.15511669921875,-0.039589881896972656,0.024268224835395813,0.004973525181412697
1730998136172054500,16.193054443359376,0.33600616455078125,-0.050300002098083496,0.13227775692939758
1730998136209992700,16.23099267578125,0.1813831329345703,0.06412354111671448,-0.06412770599126816
1730998136247930600,16.2689306640625,-0.09911346435546875,0.0598180815577507,-0.022570688277482986
1730998136285868500,16.30686865234375,-0.048079490661621094,0.05046488344669342,0.10580086708068848
1730998136323806700,16.344806640625,-0.032578468322753906,0.06309055536985397,0.038754865527153015
1730998136361744600,16.38274462890625,-0.13746929168701172,0.10546065121889114,-0.20860281586647034
1730998136399682600,16.4206826171875,0.07718372344970703,0.3185074031352997,0.48836749792099
1730998136437620700,16.458620849609375,0.15502071380615234,0.14864036440849304,0.26558342576026917
1730998136475558700,16.49655859375,-0.023775100708007812,0.41615644097328186,0.48319435119628906
1730998136513496800,16.534496826171875,0.08784198760986328,0.5954903364181519,0.6087936758995056
1730998136551434800,16.572434814453125,-0.2187814712524414,0.742439329624176,0.6229085326194763
1730998136589372700,16.61037255859375,0.09732723236083984,-0.027331575751304626,0.25052255392074585
1730998136627310800,16.648310791015625,0.04540252685546875,-0.45042553544044495,0.26662638783454895
1730998136665248800,16.686248779296875,0.14827823638916016,-0.43118220567703247,0.27210450172424316
1730998136703186700,16.724186767578125,0.07432174682617188,-0.17092467844486237,0.4370262920856476
1730998136741124900,16.762124755859375,0.13755226135253906,-0.24052396416664124,-0.028651028871536255
1730998136779062800,16.800062744140625,-0.12379074096679688,0.13592033088207245,-0.015233740210533142
1730998136817001000,16.8380009765625,0.07650947570800781,-0.19979234039783478,-0.620856523513794
1730998136854939000,16.87593896484375,-0.05702400207519531,-0.543059766292572,-0.3407939672470093
1730998136892876800,16.913876708984375,0.07591629028320312,-0.43161869049072266,-0.05243900418281555
1730998136930814700,16.951814697265625,0.11976051330566406,-0.4973614811897278,-0.03556043654680252
1730998136968753000,16.9897529296875,-0.042433738708496094,-0.3735024333000183,-0.16352206468582153
1730998137006690800,17.02769091796875,-0.17077064514160156,-0.5405636429786682,-0.3888873755931854
1730998137044628500,17.06562841796875,0.15579795837402344,-0.44640040397644043,-0.004487590864300728
1730998137082567000,17.10356689453125,-0.02158641815185547,-0.2319934070110321,0.14669367671012878
1730998137120504800,17.1415048828125,0.0030889511108398438,-0.2963818907737732,-0.171011820435524
1730998137158443000,17.179443115234374,-0.04561614990234375,-0.494328111410141,-0.9466940760612488
1730998137196381000,17.217380859375,-0.04258155822753906,-0.5857124328613281,-1.0845251083374023
1730998137234318800,17.25531884765625,0.056176185607910156,-0.4604594111442566,-0.6264964938163757
1730998137272257000,17.293257080078124,-0.006590843200683594,-0.24102380871772766,-0.10236966609954834
1730998137310195000,17.33119482421875,0.14732646942138672,0.18434272706508636,0.5116674900054932
1730998137348132900,17.3691328125,-0.032562255859375,0.26091575622558594,0.06920169293880463
1730998137386071000,17.407071044921874,-0.04810523986816406,0.2483729124069214,-0.00460401177406311
1730998137424009000,17.445009033203124,-0.036522865295410156,0.40336525440216064,0.21487095952033997
1730998137461947000,17.48294677734375,-0.007847785949707031,0.4433574676513672,0.03430303931236267
1730998137499885000,17.520885009765625,0.017343521118164062,0.41509324312210083,0.08583338558673859
1730998137537823000,17.558822998046875,-0.03840827941894531,0.32406318187713623,0.05708593130111694
1730998137575761200,17.59676123046875,0.11259269714355469,0.18322885036468506,0.0067572444677352905
1730998137613699000,17.634698974609375,-0.022866249084472656,0.1522655040025711,0.05993954837322235
1730998137651637000,17.672636962890625,0.04540729522705078,0.2995213270187378,0.024501457810401917
1730998137689575200,17.7105751953125,-0.08258247375488281,0.15488342940807343,-0.3223167657852173
1730998137727513000,17.74851318359375,-0.07269287109375,0.19270570576190948,-0.6329637169837952
1730998137765451000,17.786450927734375,0.052412986755371094,0.24111440777778625,-0.38961753249168396
1730998137803389200,17.82438916015625,-0.10303020477294922,0.25341159105300903,-0.3049604594707489
1730998137841327000,17.8623271484375,-0.011350631713867188,0.14181192219257355,-0.16531100869178772
1730998137879265000,17.90026513671875,-0.06759262084960938,-0.06658420711755753,-0.006996214389801025
1730998137917203200,17.938203125,-0.19752883911132812,-0.08633610606193542,0.05390411615371704
1730998137955141000,17.97614111328125,0.246612548828125,-0.053425177931785583,0.19013896584510803
1730998137993079000,18.0140791015625,0.16217517852783203,-0.2085782289505005,0.2564714550971985
1730998138031017200,18.052017333984374,-0.1562948226928711,-0.09096981585025787,0.08781304955482483
1730998138068955100,18.089955078125,-0.02096843719482422,-0.35929954051971436,0.09035137295722961
1730998138106893000,18.12789306640625,-0.09311103820800781,-0.2592800259590149,0.03757531940937042
1730998138144831200,18.165831298828124,-0.25031185150146484,-0.14099779725074768,-0.1968097984790802
1730998138182769200,18.20376904296875,0.09362506866455078,0.11157844215631485,0.8369962573051453
1730998138220707000,18.24170703125,0.14598560333251953,-0.0692404955625534,1.4667528867721558
1730998138258645200,18.279645263671874,-0.03532886505126953,-0.07079628109931946,1.2058883905410767
1730998138296583200,18.317583251953124,0.0050182342529296875,-0.1061093807220459,1.0022382736206055
1730998138334521300,18.355521240234374,-0.0021181106567382812,-0.2783053517341614,0.26381319761276245
1730998138372459300,18.393459228515624,0.15763187408447266,-0.15888208150863647,-0.22623708844184875
1730998138410397200,18.431397216796874,-0.04055500030517578,0.09625186771154404,0.19785961508750916
1730998138448335400,18.46933544921875,-0.040534019470214844,0.15829282999038696,0.08806022256612778
1730998138486273300,18.507273193359374,0.018865585327148438,0.12741619348526,0.04000159353017807
1730998138524211200,18.545211181640624,-0.013871192932128906,0.13964428007602692,0.049236614257097244
1730998138562149400,18.5831494140625,-0.00194549560546875,0.10424575209617615,0.08017396926879883
1730998138600087300,18.62108740234375,-0.03568077087402344,0.3489130437374115,-0.05008615553379059
1730998138638025200,18.659025146484375,0.015641212463378906,0.3782466948032379,0.15483462810516357
1730998138675963400,18.69696337890625,-0.001628875732421875,0.46668991446495056,-0.03841858357191086
1730998138713901300,18.7349013671875,-0.005110740661621094,0.49152594804763794,-0.06268852204084396
1730998138751839200,18.772839111328125,0.04932212829589844,0.48727625608444214,-0.05984494835138321
1730998138789777400,18.81077734375,0.0791330337524414,0.7891907095909119,-0.14537103474140167
1730998138827715300,18.84871533203125,0.27579593658447266,0.9165841341018677,-0.13683122396469116
1730998138865653500,18.886653564453123,0.41289806365966797,1.0160051584243774,0.05177915468811989
1730998138903591400,18.92459130859375,0.03932476043701172,1.085582971572876,-0.14596445858478546
1730998138941529300,18.962529296875,0.21097660064697266,1.05514395236969,0.08543581515550613
1730998138979467500,19.000467529296873,-0.1752939224243164,1.1599482297897339,0.022995226085186005
1730998139017405400,19.038405517578123,0.27781009674072266,1.0642194747924805,-0.2512691617012024
1730998139055343400,19.07634326171875,3.2737159729003906,-0.20772039890289307,0.49400049448013306
1730998139093281300,19.11428125,2.498048782348633,0.09010833501815796,0.3232564926147461
1730998139131219500,19.152219482421874,2.1569643020629883,-0.0985533595085144,0.298503041267395
1730998139169157400,19.190157470703124,2.1022539138793945,-0.4283318817615509,0.06333764642477036
1730998139207095600,19.228095458984374,0.5019721984863281,0.0901646614074707,-0.22557121515274048
1730998139245033500,19.266033447265624,0.14070987701416016,-0.27737149596214294,-0.003609895706176758
1730998139282971400,19.303971435546874,-0.08770561218261719,-0.7015479207038879,-0.1734461784362793
1730998139320909600,19.34190966796875,0.5099210739135742,-1.1831953525543213,-0.20539289712905884
1730998139358847500,19.379847412109374,-3.0248498916625977,-0.7051342129707336,-0.5739195942878723
1730998139396785400,19.417785400390624,-0.6729660034179688,-0.9547982811927795,-0.3078649640083313
1730998139434723600,19.4557236328125,0.30844783782958984,-0.5973931550979614,-0.13086941838264465
1730998139472661500,19.49366162109375,0.41686534881591797,-0.2232171893119812,0.3163514733314514
1730998139510599400,19.531599365234374,1.0410842895507812,-0.6690474152565002,0.04669199883937836
1730998139548537600,19.56953759765625,-0.6476573944091797,-1.0684568881988525,0.11321991682052612
1730998139586475500,19.6074755859375,-3.7651476860046387,-0.45718905329704285,0.15241605043411255
1730998139624413400,19.645413330078124,-0.8416061401367188,-1.281204104423523,0.35434064269065857
1730998139662351600,19.6833515625,-0.34958553314208984,-0.9235180616378784,0.2990529537200928
1730998139700289500,19.72128955078125,1.1200799942016602,-0.6802984476089478,-0.01818261295557022
1730998139738227500,19.7592275390625,1.5135860443115234,-0.37345486879348755,0.13953649997711182
1730998139776165600,19.79716552734375,0.9706134796142578,-0.28423944115638733,-0.11725233495235443
1730998139814103600,19.835103515625,0.10333824157714844,-0.713631272315979,0.05811947211623192
1730998139852041700,19.873041748046877,-1.101731300354004,0.7504177093505859,-0.10313460975885391
1730998139889979600,19.910979736328127,-4.070785999298096,0.044080525636672974,-0.19007554650306702
1730998139927917600,19.94891748046875,-1.2401065826416016,0.02433815598487854,-0.13122843205928802
1730998139965855700,19.986855712890623,-0.7097663879394531,0.569721519947052,-0.28254133462905884
1730998140003793700,20.024793701171873,1.257181167602539,-0.28207868337631226,0.12246295064687729
1730998140041731600,20.062731689453123,0.7697639465332031,-0.3128056824207306,-0.022245168685913086
1730998140079669800,20.100669677734373,0.22257518768310547,-0.9150924682617188,-0.20859664678573608
1730998140117607700,20.138607666015623,0.8294858932495117,0.051791608333587646,-0.29107579588890076
1730998140155545600,20.176545654296874,-1.423492431640625,-0.15012046694755554,-0.14636409282684326
1730998140193483800,20.21448388671875,-1.038304328918457,0.10537594556808472,-0.22104039788246155
1730998140231421700,20.252421630859374,0.05546092987060547,-0.5475891828536987,0.1259634792804718
1730998140269359600,20.290359619140624,0.9735488891601562,-1.2249356508255005,0.2730381488800049
1730998140307297800,20.3282978515625,-2.085325241088867,0.32433629035949707,-0.2041497826576233
1730998140345235700,20.366235595703124,-1.7969818115234375,-0.46029341220855713,-0.03197792172431946
1730998140383173600,20.404173583984374,-1.0695219039916992,-0.08622750639915466,-0.025944851338863373
1730998140421111800,20.44211181640625,-0.2071990966796875,-0.01453179121017456,0.2880983352661133
1730998140459049700,20.4800498046875,0.5638027191162109,-0.36205533146858215,0.33569061756134033
1730998140496987600,20.517987548828124,0.06761646270751953,0.22115522623062134,0.5692479014396667
1730998140534925800,20.55592578125,-0.5543441772460938,-2.180114269256592,0.4831966161727905
1730998140572863700,20.59386376953125,1.975102424621582,-0.4516807794570923,-0.36081379652023315
1730998140610801700,20.6318017578125,0.7922725677490234,-0.9245976209640503,-0.26772257685661316
1730998140648739800,20.66973974609375,0.7175884246826172,-0.5665248036384583,-0.26043087244033813
1730998140686677800,20.707677734375,1.6490144729614258,-0.26484405994415283,-0.3333888649940491
1730998140724615700,20.74561572265625,-0.6281356811523438,0.08995452523231506,-0.47862178087234497
1730998140762553900,20.783553955078126,1.4355592727661133,-1.523376226425171,0.8385969996452332
1730998140800491800,20.82149169921875,2.889937400817871,0.04636847972869873,0.5664863586425781
1730998140838429700,20.8594296875,1.0291767120361328,-0.22768084704875946,-0.10724286735057831
1730998140876368000,20.897367919921876,0.3560676574707031,-0.03198164701461792,-0.016081128269433975
1730998140914305800,20.935305908203127,0.33086395263671875,0.45835113525390625,0.46506479382514954
1730998140952243700,20.97324365234375,0.26915836334228516,1.2926830053329468,1.171942114830017
1730998140990182000,21.011181884765627,0.748387336730957,-0.807445228099823,0.965437650680542
1730998141028119800,21.049119873046877,1.3839073181152344,0.2586899399757385,0.4797307252883911
1730998141066057700,21.0870576171875,0.5614089965820312,0.039460763335227966,0.20624376833438873
1730998141103996000,21.124995849609373,0.8389072418212891,0.11727844178676605,0.6901612877845764
1730998141141933800,21.162933837890623,0.009911537170410156,-0.1238785982131958,0.44858118891716003
1730998141179871700,21.200871826171873,-0.8942852020263672,-0.1880379617214203,0.5135619640350342
1730998141217810000,21.238809814453123,-0.597050666809082,0.40078502893447876,0.6550050377845764
1730998141255747800,21.276747802734373,0.015338897705078125,-0.5736432075500488,0.47566279768943787
1730998141293685800,21.314685791015624,0.7045001983642578,-0.9816548824310303,1.019312858581543
1730998141331624000,21.3526240234375,0.6791963577270508,-0.8879722356796265,0.8062363266944885
1730998141369561900,21.390561767578124,2.6023035049438477,-2.8962152004241943,1.2560808658599854
1730998141407499800,21.428499755859374,1.1439266204833984,-0.5816823840141296,0.9575861692428589
1730998141445438000,21.46643798828125,-1.136652946472168,-0.16113223135471344,0.11601272970438004
1730998141483375900,21.5043759765625,-0.22433948516845703,-0.8528372645378113,-0.08821374177932739
1730998141521313800,21.542313720703124,-0.40532398223876953,-0.6570366621017456,0.285440057516098
1730998141559252000,21.580251953125,1.8056879043579102,-0.7014557123184204,0.6300210952758789
1730998141597190000,21.61818994140625,1.1897506713867188,-0.7263506650924683,0.7071109414100647
1730998141635127800,21.6561279296875,1.0537147521972656,0.06713822484016418,0.5055747032165527
1730998141673066000,21.69406591796875,0.36180686950683594,0.16997715830802917,0.32995709776878357
1730998141711004000,21.73200390625,-0.18339824676513672,0.4591817855834961,-0.2513081729412079
1730998141748941800,21.76994189453125,0.3808107376098633,-1.7496076822280884,0.29427361488342285
1730998141786880000,21.8078798828125,-0.9359331130981445,-0.1355230063199997,-0.11657369881868362
1730998141824818000,21.84581787109375,0.39776039123535156,0.033375367522239685,-0.014256574213504791
1730998141862755800,21.883755859375,0.7912588119506836,-0.4414025843143463,0.009742265567183495
1730998141900694000,21.921694091796876,0.4885272979736328,-0.37529823184013367,0.2395746260881424
1730998141938632000,21.9596318359375,1.6454296112060547,-2.040069818496704,0.5486172437667847
1730998141976569900,21.99756982421875,1.067152976989746,-0.2584288716316223,0.058619096875190735
1730998142014508000,22.035508056640627,2.531661033630371,-0.30323147773742676,0.39636120200157166
1730998142052446000,22.073446044921877,1.7640876770019531,-0.9080236554145813,-0.006576547399163246
1730998142090384000,22.1113837890625,1.1439208984375,-0.4324026107788086,-0.2342345118522644
1730998142128322000,22.149322021484377,1.5783205032348633,-1.9075086116790771,0.3751443326473236
1730998142166260000,22.187260009765627,-0.11001968383789062,-0.3079654276371002,-0.10752218216657639
1730998142204198100,22.2251982421875,0.4205503463745117,0.03387041389942169,-0.2732132077217102
1730998142242136000,22.263135986328123,0.04608440399169922,-1.0578383207321167,-0.46124476194381714
1730998142280074000,22.301073974609373,-1.0875253677368164,-0.04634205996990204,-0.0521262064576149
1730998142318012200,22.33901220703125,2.2466135025024414,0.4072810709476471,0.50520920753479
1730998142355950000,22.3769501953125,0.34383296966552734,-0.41897112131118774,-0.27888810634613037
1730998142393888000,22.414887939453124,1.7245588302612305,0.17567941546440125,-0.3031689524650574
1730998142431826000,22.452825927734374,0.9151296615600586,-0.2867923676967621,-0.21706926822662354
1730998142469764000,22.49076416015625,-0.27490234375,-0.6230277419090271,-0.15633343160152435
1730998142507702000,22.528701904296874,-0.6059379577636719,-0.2241993099451065,-0.6367819309234619
1730998142545640000,22.566639892578124,0.673609733581543,0.031190454959869385,-0.15294763445854187
1730998142583578000,22.604578125,-0.3919944763183594,-0.6096673607826233,-0.3389851450920105
1730998142621516000,22.64251611328125,1.0354652404785156,-0.3333676755428314,-0.6108733415603638
1730998142659454000,22.680453857421874,1.5123138427734375,-0.44204476475715637,-0.07162272930145264
1730998142697392000,22.71839208984375,0.5486488342285156,-0.39029309153556824,-0.25599968433380127
1730998142735330000,22.756330078125,-0.5554409027099609,-0.03287892043590546,-0.60102379322052
1730998142773268000,22.79426806640625,-1.32696533203125,0.243257075548172,-0.6890335083007812
1730998142811206100,22.8322060546875,-1.1305274963378906,0.6953323483467102,-0.20495422184467316
1730998142849144000,22.87014404296875,-0.6885700225830078,-0.37520402669906616,-0.0009498521685600281
1730998142887082000,22.90808203125,-1.621708869934082,0.02134673297405243,-0.4158501625061035
1730998142925020200,22.946020263671876,-2.131326198577881,0.631757378578186,-0.771960973739624
1730998142962958000,22.9839580078125,-1.0563840866088867,-0.22091098129749298,0.018223658204078674
1730998143000896000,23.02189599609375,0.06908607482910156,-0.10747626423835754,0.5613518953323364
1730998143038834200,23.059834228515626,-0.43190765380859375,0.0758620947599411,0.648149847984314
1730998143076772000,23.097772216796876,1.1098413467407227,0.26749387383461,0.08044612407684326
1730998143114710000,23.1357099609375,0.7330074310302734,-0.15119068324565887,0.2019270658493042
1730998143152648200,23.173648193359377,0.8885564804077148,0.3661114573478699,0.14133743941783905
1730998143190586000,23.211586181640627,1.869288444519043,-1.1618812084197998,0.49468326568603516
1730998143228524000,23.24952392578125,0.8920459747314453,-0.6023285984992981,0.01566033810377121
1730998143266462200,23.287462158203127,-1.1037817001342773,0.22271321713924408,-0.3577907085418701
1730998143304400100,23.325400146484377,-0.9201364517211914,-0.40404564142227173,-0.12546074390411377
1730998143342338000,23.363338134765623,-0.3728628158569336,-0.6017034649848938,-0.12280777096748352
1730998143380276200,23.401276123046873,-1.565042495727539,1.0440056324005127,0.24753378331661224
1730998143418214100,23.439214111328123,-1.1188812255859375,0.12111708521842957,0.5137421488761902
1730998143456152000,23.477152099609373,1.8109493255615234,0.01768374815583229,0.21700379252433777
1730998143494090000,23.515090087890623,0.5998001098632812,0.18053142726421356,0.27804213762283325
1730998143532028200,23.553028076171874,-0.05663013458251953,0.17313769459724426,0.3725613057613373
1730998143569966000,23.590966064453124,-0.4080982208251953,-0.4041033387184143,0.30004647374153137
1730998143607904000,23.628904052734374,1.455240249633789,-0.33940982818603516,0.40424609184265137
1730998143645842200,23.66684228515625,0.25818347930908203,-0.2041262835264206,-0.22324836254119873
1730998143683780000,23.704780029296874,-0.29358482360839844,-0.3037477135658264,-0.26960277557373047
1730998143721718000,23.742718017578124,-0.0007886886596679688,-0.7458863258361816,0.31002092361450195
1730998143759656200,23.78065625,-2.4704465866088867,-0.8126751780509949,0.01754089444875717
1730998143797594000,23.818593994140624,-0.7651968002319336,-0.016420863568782806,-0.04910820722579956
1730998143835532000,23.856531982421874,-0.39325809478759766,-0.1129402369260788,-0.22436457872390747
1730998143873470200,23.89447021484375,0.6888446807861328,-0.037065666168928146,0.3535802662372589
1730998143911408000,23.932408203125,0.5035648345947266,0.050468139350414276,0.040194541215896606
1730998143949346000,23.970345947265624,-1.2768440246582031,0.7239380478858948,-0.520140528678894
1730998143987284200,24.0082841796875,-1.6515769958496094,0.4952661395072937,-0.1472787857055664
1730998144025222100,24.04622216796875,-0.634861946105957,0.8591758012771606,-0.38563692569732666
1730998144063160000,24.08416015625,1.8713455200195312,-0.8917134404182434,-0.2599497139453888
1730998144101098200,24.12209814453125,0.5936393737792969,-1.2460236549377441,-0.0850977897644043
1730998144139036200,24.1600361328125,0.9454936981201172,-0.5397278666496277,0.46724069118499756
1730998144176974000,24.19797412109375,1.299118995666504,-0.37269508838653564,0.3448593020439148
1730998144214912300,24.235912353515626,1.1689271926879883,-0.6553966999053955,0.05334535613656044
1730998144252850200,24.27385009765625,0.47684192657470703,-0.0521683543920517,0.4659787118434906
1730998144290788000,24.3117880859375,0.15937328338623047,0.3754807114601135,-0.02723006159067154
1730998144328726300,24.349726318359377,1.5068426132202148,-0.40528470277786255,0.3484286367893219
1730998144366664200,24.387664306640627,3.7367658615112305,-0.44837486743927,0.4732314944267273
1730998144404602000,24.42560205078125,1.605637550354004,-0.2513081729412079,0.11747075617313385
1730998144442540000,24.4635400390625,-1.1500358581542969,0.2877153754234314,-0.2728075385093689
1730998144480478200,24.501478271484373,-0.7303981781005859,-0.4892614185810089,-0.4727572500705719
1730998144518416100,24.539416015625,0.5986433029174805,-0.08213711529970169,0.35387691855430603
1730998144556354000,24.57735400390625,-1.2075128555297852,0.01974176988005638,-0.10552680492401123
1730998144594292200,24.615292236328123,-1.3884878158569336,0.46442297101020813,-0.27958038449287415
1730998144632230100,24.653230224609374,1.237360954284668,-0.43647146224975586,-0.05771048739552498
1730998144670168000,24.69116796875,-2.347041606903076,0.17290036380290985,-0.4346372187137604
1730998144708106200,24.729106201171874,-3.061520576477051,0.8701353669166565,-0.5875008702278137
1730998144746044200,24.767044189453124,-1.6154699325561523,0.7519615888595581,-0.22581587731838226
1730998144783982000,24.804982177734374,0.1802845001220703,-0.02681783214211464,0.15388450026512146
1730998144821920300,24.842920166015624,1.8496026992797852,-0.4334211051464081,1.1160820722579956
1730998144859858200,24.880858154296874,0.7497777938842773,-0.6964393854141235,-0.18971313536167145
1730998144897796000,24.918796142578124,0.46980857849121094,0.024038247764110565,0.5717357397079468
1730998144935734300,24.956734375,-0.025284767150878906,0.2387368083000183,-0.20171022415161133
1730998144973672200,24.994672119140624,-0.6948270797729492,0.16294588148593903,-0.07023564726114273
1730998145011610000,25.032610107421874,-2.9351277351379395,-0.3353404402732849,-0.3578285574913025
1730998145049548300,25.07054833984375,-1.2440462112426758,0.039352431893348694,0.2060173749923706
1730998145087486200,25.108486328125,0.3737335205078125,-0.34220758080482483,0.19083137810230255
1730998145125424000,25.146424072265624,0.6635704040527344,-0.25214099884033203,0.0499751977622509
1730998145163362300,25.1843623046875,0.4244709014892578,-0.3979113698005676,-0.6768284440040588
1730998145201300200,25.22230029296875,2.599207878112793,-0.009568706154823303,-0.098049595952034
1730998145239238100,25.260238037109374,2.3717689514160156,-0.15446220338344574,0.3824833631515503
1730998145277176000,25.298176025390624,0.40470314025878906,-0.008238716050982475,0.42524489760398865
1730998145315114200,25.3361142578125,-1.8747167587280273,-0.8062487244606018,0.46492552757263184
1730998145353052200,25.37405224609375,-0.34066295623779297,0.6336716413497925,0.3793793320655823
1730998145390990000,25.411989990234375,-0.7525625228881836,0.6779810190200806,0.11343501508235931
1730998145428928300,25.44992822265625,-0.6452627182006836,0.6610775589942932,0.7677760720252991
1730998145466866200,25.4878662109375,-0.9790821075439453,0.5753647089004517,0.3885154128074646
1730998145504804000,25.52580419921875,-0.7186126708984375,-0.698894739151001,0.47858062386512756
1730998145542742300,25.5637421875,-0.13717365264892578,-0.010820437222719193,0.3905642330646515
1730998145580680200,25.60168017578125,-0.500579833984375,-0.056960321962833405,0.38934892416000366
1730998145618618000,25.6396181640625,-1.186100959777832,0.9420357346534729,0.3656294047832489
1730998145656556000,25.67755615234375,-0.8976955413818359,-0.021034402772784233,0.3615993857383728
1730998145694494200,25.715494140625,-1.4559307098388672,0.46971815824508667,0.8230624198913574
1730998145732432100,25.75343212890625,-0.032586097717285156,-0.6167892217636108,0.5768006443977356
1730998145770370000,25.7913701171875,0.9146213531494141,-0.28433600068092346,1.5868873596191406
1730998145808308200,25.82930810546875,-0.6433620452880859,0.4652206003665924,0.8279191255569458
1730998145846246100,25.86724609375,0.20039844512939453,-0.7675037384033203,1.1373685598373413
1730998145884184000,25.90518408203125,1.8643407821655273,-0.6056175231933594,1.2093397378921509
1730998145922122200,25.943122314453124,0.7670211791992188,-0.49716827273368835,0.3783052861690521
1730998145960060200,25.98106005859375,-1.7245368957519531,0.5468111634254456,-0.19432803988456726
1730998145997998000,26.018998046875,-0.5790061950683594,-0.16048745810985565,-0.5849716067314148
1730998146035936300,26.056936279296874,-0.8588085174560547,-0.0557892732322216,-0.1454077810049057
1730998146073874200,26.094874267578124,0.1972646713256836,-0.8011093139648438,0.150930255651474
1730998146111812000,26.13281201171875,1.5415592193603516,-0.8053245544433594,-0.5346487760543823
1730998146149750300,26.170750244140624,-1.1445121765136719,-0.029954424127936363,-0.6612748503684998
1730998146187688200,26.208688232421874,-0.598078727722168,0.07510680705308914,0.5846049785614014
1730998146225626000,26.246626220703124,1.257533073425293,-0.20189355313777924,0.5408098101615906
1730998146263564000,26.28456396484375,-1.3545093536376953,-0.06601458787918091,0.17931193113327026
1730998146301502200,26.322502197265624,-0.4246406555175781,0.5243327617645264,-0.9160462617874146
1730998146339440000,26.360440185546874,-1.2356853485107422,0.332527756690979,-0.1490076780319214
1730998146377378000,26.3983779296875,-0.9708099365234375,0.5259827375411987,0.1754388064146042
1730998146415316000,26.43631591796875,-2.0457706451416016,0.9933826923370361,-0.33477509021759033
1730998146453254100,26.474254150390625,-0.7915410995483398,-0.6014857292175293,-0.09682635217905045
1730998146491192000,26.512192138671875,0.8188142776489258,-0.86002117395401,-0.02244047075510025
1730998146529130000,26.5501298828125,0.9800615310668945,-1.2026853561401367,-0.11703702807426453
1730998146567068200,26.588068115234375,-0.42661476135253906,-0.2754954993724823,-1.1305267810821533
1730998146605006000,26.626006103515625,-3.601268768310547,0.1807144731283188,-1.2872586250305176
1730998146642944000,26.663944091796875,-0.5716753005981445,-0.4066162407398224,-0.8448886871337891
1730998146680882200,26.701882080078125,0.39555931091308594,0.1321038007736206,-0.8447805047035217
1730998146718820000,26.739820068359375,0.3002004623413086,-0.15134406089782715,-0.7264025807380676
1730998146756758000,26.777758056640625,0.2157449722290039,-1.562987208366394,-0.5482756495475769
1730998146794696200,26.8156962890625,1.9360008239746094,0.14063410460948944,-1.6765021085739136
1730998146832634000,26.853634033203125,0.4837923049926758,0.5365192294120789,-1.6597115993499756
1730998146870572000,26.891572021484375,0.3206033706665039,0.8897268176078796,-1.7193440198898315
1730998146908510000,26.929510009765625,-0.1184682846069336,-0.021041318774223328,-1.2411566972732544
1730998146946448100,26.9674482421875,0.9574193954467773,-0.13494373857975006,-0.784088134765625
1730998146984386000,27.005385986328125,-0.2029581069946289,-0.184239462018013,-1.8220213651657104
1730998147022324000,27.043323974609375,-0.5348110198974609,-0.6568525433540344,-1.4032316207885742
1730998147060262100,27.08126220703125,-0.07079601287841797,-0.24047677218914032,-0.9594562649726868
1730998147098200000,27.119199951171876,0.16887664794921875,-0.07361990213394165,-0.392698734998703
1730998147136138000,27.157137939453126,0.006175994873046875,0.2765687108039856,-1.489067554473877
1730998147174076200,27.195076171875,-0.6520977020263672,-0.21509313583374023,-0.6478740572929382
1730998147212014000,27.23301416015625,1.9513263702392578,-0.8131884932518005,-0.9264231324195862
1730998147249952000,27.270951904296876,-0.33826446533203125,-0.12222512066364288,-0.6555734872817993
1730998147287890000,27.308889892578126,0.28431224822998047,1.253557801246643,-0.0044279396533966064
1730998147325828000,27.346828125,-0.6139211654663086,-0.17848849296569824,-0.3947354853153229
1730998147363766000,27.38476611328125,-0.23577404022216797,-0.7466261386871338,-1.04093337059021
1730998147401704000,27.422703857421876,0.019632339477539062,-0.4409758150577545,-0.4715471863746643
1730998147439641900,27.460641845703126,-0.9242382049560547,-0.449884831905365,-0.2919459939002991
1730998147477580000,27.498580078125,0.8457784652709961,0.1808190643787384,-0.21401992440223694
1730998147515518000,27.53651806640625,-1.9266548156738281,1.620413899421692,0.2335624396800995
1730998147553455900,27.574455810546876,-1.153757095336914,1.7130720615386963,-0.4057895243167877
1730998147591394000,27.61239404296875,1.2744035720825195,1.170573353767395,0.041213035583496094
1730998147629332000,27.65033203125,0.25110912322998047,-0.006980139762163162,0.4803447425365448
1730998147667270000,27.688269775390626,-3.0956239700317383,1.3276222944259644,0.3731108605861664
1730998147705208000,27.7262080078125,0.45911598205566406,0.3041550815105438,0.2943688631057739
1730998147743146000,27.76414599609375,0.925079345703125,0.37328043580055237,-0.5378861427307129
1730998147781084000,27.802083984375,0.24300765991210938,-0.2719682455062866,-0.2813531756401062
1730998147819021800,27.840021728515627,-0.2791585922241211,-1.7293363809585571,0.5063395500183105
1730998147856960000,27.8779599609375,-1.5140914916992188,0.017051097005605698,0.2416875660419464
1730998147894898000,27.91589794921875,-0.08788490295410156,-0.8975566625595093,-0.27241942286491394
1730998147932835800,27.9538359375,0.16384124755859375,-0.07463710755109787,0.08438993990421295
1730998147970774000,27.99177392578125,-1.2870903015136719,-0.06287495791912079,-0.005197882652282715
1730998148008712000,28.0297119140625,3.2603445053100586,-1.0972360372543335,0.3356974124908447
1730998148046649900,28.06764990234375,2.105837821960449,-0.5245305299758911,0.2526513338088989
1730998148084587800,28.105587890625,0.8664932250976562,-0.4742015302181244,0.6028128862380981
1730998148122526000,28.14352587890625,0.5527734756469727,-0.7326705455780029,0.8776921629905701
1730998148160464000,28.1814638671875,-1.816544532775879,0.8886863589286804,0.38091036677360535
1730998148198401800,28.21940185546875,-0.44446754455566406,-0.40926599502563477,0.49899032711982727
1730998148236340000,28.257340087890626,0.703038215637207,-0.11278022080659866,0.21643498539924622
1730998148274278000,28.29527783203125,1.0691719055175781,-0.6134275794029236,0.8608946204185486
1730998148312215800,28.3332158203125,0.7918710708618164,-1.0756622552871704,-0.05383169651031494
1730998148350153700,28.37115380859375,-1.3945188522338867,-0.08885444700717926,0.9881876707077026
1730998148388092000,28.409091796875,0.6828498840332031,-1.2767349481582642,0.32741308212280273
1730998148426029800,28.44702978515625,0.3982877731323242,-1.8181536197662354,0.05254785716533661
1730998148463967700,28.4849677734375,0.4316682815551758,-2.3025009632110596,-0.11609816551208496
1730998148501905700,28.52290576171875,0.6873226165771484,-2.2545652389526367,0.5318093299865723
1730998148539843800,28.56084375,-2.4457292556762695,-1.7405136823654175,-0.1922369748353958
1730998148577781800,28.59878173828125,-0.3726930618286133,-1.6313799619674683,0.5921081304550171
1730998148615719700,28.6367197265625,0.8160037994384766,-1.3609486818313599,0.2804974913597107
1730998148653657900,28.674657958984376,0.5770797729492188,-1.4734894037246704,0.06724128127098083
1730998148691595800,28.712595703125,0.7827482223510742,-1.9589972496032715,0.09139803051948547
1730998148729533700,28.75053369140625,0.24370288848876953,-1.7043938636779785,-0.009055256843566895
1730998148767471600,28.7884716796875,0.3533363342285156,-2.2900044918060303,0.2918672561645508
1730998148805409800,28.826409912109376,-0.13559436798095703,-1.7731399536132812,0.29973188042640686
1730998148843347700,28.86434765625,-0.012601852416992188,-1.711565375328064,0.26789575815200806
1730998148881285600,28.90228564453125,-0.21765899658203125,-1.4432964324951172,0.03206522762775421
1730998148919223800,28.940223876953127,-0.08890533447265625,-1.1136088371276855,0.04805698245763779
1730998148957161700,28.97816162109375,-0.039032936096191406,-0.6423915028572083,0.09140518307685852
1730998148995099600,29.016099609375,0.02534961700439453,-0.18665343523025513,0.1986704170703888
1730998149033037600,29.05403759765625,0.018201828002929688,0.18363487720489502,0.07120344042778015
1730998149070975700,29.091975830078123,0.006237983703613281,0.4564366340637207,0.1761453002691269
1730998149108913700,29.12991357421875,-0.0009927749633789062,0.5835354328155518,0.03961746394634247
1730998149146851600,29.1678515625,0.010836601257324219,0.6710386276245117,0.07012677937746048
1730998149184789800,29.205789794921873,-0.006008148193359375,0.6795001029968262,0.1755754053592682
1730998149222727700,29.243727783203123,0.02724742889404297,0.6328930258750916,-0.00005914270877838135
1730998149260665600,29.28166552734375,-0.009090423583984375,0.5226090550422668,0.04174083471298218
1730998149298603500,29.319603515625,0.0022106170654296875,0.4109608232975006,0.12523409724235535
1730998149336541400,29.35754150390625,0.011409759521484375,0.25634294748306274,0.019569657742977142
1730998149374479600,29.395479736328124,0.0035419464111328125,0.16237378120422363,0.07755017280578613
1730998149412417500,29.43341748046875,-0.0034885406494140625,0.09142884612083435,0.022338472306728363
1730998149450355500,29.47135546875,0.005553245544433594,0.06159007549285889,0.026604749262332916
1730998149488293600,29.509293701171874,0.011734962463378906,0.04565432667732239,0.03590632230043411
1730998149526231600,29.5472314453125,0.007578849792480469,0.06671962141990662,0.020780891180038452
1730998149564169500,29.58516943359375,-0.020249366760253906,0.11442449688911438,0.04028577357530594
1730998149602107400,29.623107421875,-0.004118919372558594,0.13510245084762573,0.023027606308460236
1730998149640045600,29.661045654296874,0.015799522399902344,0.12703269720077515,0.017675861716270447
1730998149677983500,29.6989833984375,0.0021648406982421875,0.09982481598854065,0.022100239992141724
1730998149715921400,29.73692138671875,0.0048236846923828125,0.07570300996303558,0.013199672102928162
1730998149753859300,29.774859375,-0.0024785995483398438,0.04729536175727844,0.01570402830839157
1730998149791797500,29.812797607421874,0.0018091201782226562,0.04167729616165161,0.011666014790534973
1730998149829735400,29.8507353515625,0.009906768798828125,0.03930489718914032,0.01253693550825119
1730998149867673300,29.88867333984375,-0.017791748046875,0.05050322413444519,0.009571462869644165
1730998149905611500,29.926611572265625,-0.0014219284057617188,0.03901229798793793,0.015339892357587814
1730998149943549400,29.964549560546875,-0.012571334838867188,0.025981813669204712,0.005805417895317078
1730998149981487400,30.0024873046875,0.012655258178710938,0.025304019451141357,0.004571899771690369
1730998150019425300,30.04042529296875,-0.0056667327880859375,0.03824429214000702,0.003945827484130859
1730998150057363500,30.078363525390625,0.0018596649169921875,0.04122591018676758,-0.0009809210896492004
1730998150095301400,30.11630126953125,-0.014418601989746094,0.030609890818595886,0.012070458382368088
1730998150133239300,30.1542392578125,-0.00029754638671875,0.016367271542549133,0.004133082926273346
1730998150171177200,30.19217724609375,-0.013202667236328125,0.011452168226242065,0.009738016873598099
1730998150209115100,30.230115234375,0.0026702880859375,0.021137043833732605,0.0044542476534843445
1730998150247053300,30.26805322265625,-0.009299278259277344,0.01897270977497101,0.0013802945613861084
1730998150284991200,30.3059912109375,0.0022611618041992188,0.02154858410358429,-0.002897121012210846
1730998150322929200,30.34392919921875,-0.000240325927734375,0.01981969177722931,0.006354048848152161
1730998150360867300,30.381867431640625,0.020763397216796875,0.009255737066268921,0.008242454379796982
1730998150398805200,30.41980517578125,-0.0009431838989257812,-0.002845555543899536,-0.003846682608127594
1730998150436743200,30.4577431640625,-0.014404296875,0.00811527669429779,-0.0054191723465919495
1730998150474681000,30.49568115234375,0.021951675415039062,0.014494448900222778,0.012774232774972916
1730998150512619300,30.533619384765625,-0.017225265502929688,0.004380166530609131,0.00756252184510231
1730998150550557200,30.57155712890625,0.0009670257568359375,0.012568637728691101,-0.002656109631061554
1730998150588495000,30.6094951171875,0.010288238525390625,0.007269531488418579,0.01159607246518135
1730998150626433000,30.64743310546875,-0.010920524597167969,0.004341438412666321,-0.012100711464881897
1730998150664371200,30.68537109375,-0.010239601135253906,0.011134997010231018,0.006937917321920395
1730998150702309000,30.72330908203125,-0.0027227401733398438,0.008144289255142212,0.004072524607181549
1730998150740247000,30.7612470703125,0.008373260498046875,-0.0012907832860946655,0.008202120661735535
1730998150778184700,30.799184814453124,0.00910186767578125,0.007886365056037903,-0.015021763741970062
1730998150816123100,30.837123046875,-0.011473655700683594,-0.0016569793224334717,0.008628860116004944
1730998150854061000,30.87506103515625,-0.011487007141113281,0.00779367983341217,-0.005202598869800568
1730998150891999000,30.9129990234375,0.007595062255859375,0.0006417334079742432,0.006935689598321915
1730998150929937000,30.95093701171875,-0.004154205322265625,-0.006218239665031433,-0.002399154007434845
1730998150967875000,30.988875,0.019283294677734375,0.0006013214588165283,0.004433378577232361
1730998151005813000,31.02681298828125,-0.002017974853515625,-0.0003481358289718628,0.006232995539903641
1730998151043751000,31.0647509765625,0.0000858306884765625,-0.005090564489364624,0.005958270281553268
1730998151081688800,31.102688720703124,-0.0008029937744140625,-0.0024118423461914062,0.008517496287822723
1730998151119626800,31.140626708984374,0.011212348937988281,0.00854802131652832,0.00562657043337822
1730998151157565000,31.17856494140625,-0.07596874237060547,0.3689744472503662,-0.04995258152484894
1730998151195502800,31.2165029296875,0.009594917297363281,0.4504987299442291,0.08498732000589371
1730998151233440800,31.254440673828125,-0.02043914794921875,0.2641330361366272,0.11537366360425949
1730998151271378700,31.292378662109375,-0.03478050231933594,-0.1874622106552124,0.02364838868379593
1730998151309316900,31.33031689453125,-0.02460956573486328,-0.36684650182724,-0.12656918168067932
1730998151347254800,31.3682548828125,0.03331184387207031,-0.36333566904067993,0.04383213073015213
1730998151385192700,31.406192626953125,-0.008722305297851562,-0.29256153106689453,-0.00854329764842987
1730998151423130600,31.444130615234375,-0.0038995742797851562,-0.15008825063705444,-0.009097658097743988
1730998151461068800,31.48206884765625,-0.014430999755859375,0.004564076662063599,0.003801986575126648
1730998151499006700,31.5200068359375,0.011325836181640625,0.28569334745407104,-0.016862668097019196
1730998151536944600,31.557944580078125,0.025745391845703125,0.47275859117507935,0.03063281998038292
1730998151574882600,31.595882568359375,0.013902664184570312,0.5415530800819397,-0.004786819219589233
1730998151612820700,31.63382080078125,0.05235576629638672,0.4064568877220154,0.049452271312475204
1730998151650758700,31.671758544921875,0.05813407897949219,0.24905122816562653,-0.006890866905450821
1730998151688696600,31.709696533203125,-0.15828418731689453,-0.05462326854467392,-0.17016881704330444
1730998151726634500,31.747634521484375,-0.07423210144042969,-0.19780318439006805,0.22254876792430878
1730998151764572700,31.78557275390625,-0.04323577880859375,-0.28468865156173706,-0.06432943046092987
1730998151802510600,31.823510498046875,0.04393577575683594,-0.193261057138443,-0.012385435402393341
1730998151840448500,31.861448486328126,-0.007838249206542969,0.3085823953151703,0.00871117040514946
1730998151878386400,31.899386474609376,-0.06666851043701172,0.7440185546875,0.09323617070913315
1730998151916324600,31.93732470703125,-0.12438011169433594,1.0822434425354004,0.05588855594396591
1730998151954262500,31.975262451171876,-0.2304229736328125,1.3125128746032715,-0.42511677742004395
1730998151992200400,32.01320043945312,0.000545501708984375,1.498872995376587,-0.18543295562267303
1730998152030138400,32.05113842773437,0.27347850799560547,1.154242992401123,-0.2332669496536255
1730998152068076300,32.089076171875,0.17007732391357422,1.3402273654937744,-0.13843658566474915
1730998152106014500,32.12701440429687,-0.33722496032714844,1.144626498222351,-0.07286600023508072
1730998152143952400,32.16495239257812,-0.42482757568359375,0.6265243291854858,-0.6384520530700684
1730998152181890300,32.20289038085937,-0.006369590759277344,0.4112377166748047,-0.4052017331123352
1730998152219828200,32.240828125,-0.14407062530517578,0.5137540102005005,-1.011499285697937
1730998152257766400,32.27876635742187,-0.5147724151611328,1.1594942808151245,-0.7377540469169617
1730998152295704300,32.31670434570312,1.4040412902832031,0.4735529124736786,0.0089598149061203
1730998152333642200,32.35464233398437,1.1283235549926758,0.7599120140075684,-1.0787830352783203
1730998152371580200,32.392580078125,1.4349451065063477,-0.16944754123687744,-0.558485746383667
1730998152409518000,32.43051806640625,0.6449718475341797,0.1936572790145874,-0.4845849871635437
1730998152447456300,32.46845629882812,1.0714597702026367,-0.3575238287448883,-0.7524352073669434
1730998152485394200,32.50639428710937,0.6833992004394531,0.6482962369918823,-0.23658572137355804
1730998152523332000,32.54433203125,3.0246944427490234,-0.1217653751373291,-0.28921908140182495
1730998152561270000,32.58227001953125,0.5825910568237305,0.5292061567306519,-0.15466243028640747
1730998152599208200,32.62020825195312,0.42672252655029297,1.2153444290161133,-0.36829978227615356
1730998152637146000,32.65814599609375,-1.3753128051757812,-0.21056914329528809,-0.2947462499141693
1730998152675084000,32.696083984375,-0.2738227844238281,-1.5754144191741943,0.5045392513275146
1730998152713022000,32.73402197265625,-2.077605724334717,-0.7652987241744995,0.6072534322738647
1730998152750960000,32.77196020507812,0.6690311431884766,-0.2863174378871918,1.0021175146102905
1730998152788898000,32.80989794921875,-1.1387443542480469,0.2188224196434021,0.8703597784042358
1730998152826836000,32.8478359375,0.2915525436401367,-0.878023087978363,0.7950246334075928
1730998152864774000,32.88577392578125,-1.0350122451782227,-0.20724260807037354,1.2705336809158325
1730998152902711800,32.9237119140625,0.5093746185302734,-0.5167956352233887,0.25748562812805176
1730998152940649700,32.96164965820312,-0.5989809036254883,-0.7821742296218872,0.6383001208305359
1730998152978588000,32.999587890625,-1.3946456909179688,-0.6000927686691284,0.7903095483779907
1730998153016525800,33.03752587890625,-0.5952262878417969,-0.6660915613174438,0.9500967264175415
1730998153054463700,33.07546362304687,1.0398063659667969,-0.41947805881500244,0.2776256203651428
1730998153092401700,33.11340161132812,0.45092201232910156,-1.2349371910095215,0.6659970283508301
1730998153130339800,33.15133984375,0.13996028900146484,-0.604027509689331,1.0857397317886353
1730998153168277800,33.18927783203125,-0.7224626541137695,-1.2677491903305054,1.6716439723968506
1730998153206215700,33.22721557617187,2.249492645263672,-0.970464289188385,0.758838415145874
1730998153244153600,33.26515356445312,0.3579874038696289,-0.16973158717155457,0.7565798759460449
1730998153282091500,33.30309155273437,0.3227090835571289,-0.9722228050231934,0.7439274191856384
1730998153320029700,33.34102978515625,-0.5265531539916992,0.6069158315658569,0.2440946102142334
1730998153357967600,33.37896752929687,-1.6916751861572266,-0.42217814922332764,1.5129245519638062
1730998153395905500,33.41690551757812,1.010615348815918,-1.0398508310317993,0.8341325521469116
1730998153433843500,33.45484350585937,1.9555950164794922,-1.0025889873504639,0.8505271077156067
1730998153471781400,33.49278149414062,1.1951675415039062,-0.8233660459518433,1.2693891525268555
1730998153509719600,33.53071948242187,-0.7966289520263672,-0.35951536893844604,0.7208617329597473
1730998153547657500,33.56865747070312,1.3847131729125977,-0.47840365767478943,0.7938448190689087
1730998153585595400,33.60659545898437,0.8355731964111328,-1.6376328468322754,2.300159215927124
1730998153623533300,33.644533203125,1.3103179931640625,-0.8902169466018677,1.6196480989456177
1730998153661471200,33.68247119140625,-1.1347627639770508,0.532772958278656,0.8172326683998108
1730998153699409400,33.72040942382812,-0.20483875274658203,-0.08258408308029175,0.9095032215118408
1730998153737347300,33.75834741210937,0.9768533706665039,-0.9666628837585449,0.6572142839431763
1730998153775285200,33.79628515625,1.1799631118774414,-1.4126218557357788,0.6598809957504272
1730998153813223200,33.83422314453125,-0.44231605529785156,0.5533158779144287,0.504306435585022
1730998153851161000,33.8721611328125,-1.1579351425170898,-0.1304372400045395,1.1790177822113037
1730998153889099300,33.91009936523437,-1.1519651412963867,-0.1937362551689148,0.11588908731937408
1730998153927037200,33.948037109375,-0.6247854232788086,-0.6191822290420532,0.23037408292293549
1730998153964975000,33.98597509765625,1.1951007843017578,-0.8589200973510742,0.505492627620697
1730998154002913000,34.0239130859375,-0.7335138320922852,-0.18863728642463684,0.619789719581604
1730998154040851000,34.06185083007812,-0.4716787338256836,0.02787664532661438,0.47292569279670715
1730998154078788600,34.09978857421875,1.613443374633789,-1.3251062631607056,0.6137828230857849
1730998154116727000,34.13772705078125,-0.02083301544189453,0.41282546520233154,-0.61588454246521
1730998154154665000,34.1756650390625,2.0503273010253906,-1.4213838577270508,-0.4763624668121338
1730998154192603000,34.21360278320312,-0.4143524169921875,0.8016719818115234,0.6071676015853882
1730998154230540800,34.25154077148437,-0.39626026153564453,0.3984537422657013,-0.0972464308142662
1730998154268479000,34.28947900390625,-0.8569478988647461,0.0369127094745636,0.8266626000404358
1730998154306417000,34.3274169921875,2.874180793762207,0.2834206223487854,-0.19796010851860046
1730998154344354800,34.36535473632812,0.14102649688720703,-0.08727699518203735,0.14627496898174286
1730998154382292700,34.40329272460937,-1.403411865234375,0.39606785774230957,-0.31693020462989807
1730998154420230700,34.44123071289062,-0.5467748641967773,-0.5138275027275085,-0.36828941106796265
1730998154458168600,34.47916845703125,2.487354278564453,0.3473261296749115,-0.24590212106704712
1730998154496106800,34.51710668945312,0.5704851150512695,-0.08589020371437073,0.49287310242652893
1730998154534044700,34.55504467773437,0.06672859191894531,-0.7412470579147339,-0.7677425146102905
1730998154571982600,34.59298266601562,0.9902658462524414,-0.913556694984436,-0.5603795051574707
1730998154609920500,34.63092041015625,0.36859607696533203,-1.0745973587036133,-0.8683679699897766
1730998154647858400,34.6688583984375,1.3386812210083008,-0.2121654450893402,-0.36765456199645996
1730998154685796600,34.70679663085937,0.7294750213623047,-0.5180850625038147,-0.4371950030326843
1730998154723734500,34.74473461914062,-0.0818490982055664,-0.825846254825592,-0.13283734023571014
1730998154761672400,34.78267236328125,3.1084556579589844,-0.9232308268547058,-0.7434305548667908
1730998154799610400,34.8206103515625,-0.37052345275878906,-0.6140466928482056,-0.7219752073287964
1730998154837548300,34.85854833984375,0.1890115737915039,-0.9905754327774048,-0.46322038769721985
1730998154875486200,34.896486328125,-0.6775283813476562,-1.1237256526947021,0.04201038181781769
1730998154913424400,34.93442431640625,1.328709602355957,-0.4094616770744324,-0.739786684513092
1730998154951362300,34.9723623046875,0.2121114730834961,-0.35913705825805664,-1.0351371765136719
1730998154989300200,35.01030029296875,-0.03810596466064453,-0.4509519338607788,-0.800161600112915
1730998155027238100,35.04823803710938,1.1651420593261719,-0.5151338577270508,-0.5437940955162048
1730998155065176000,35.08617602539063,1.0721168518066406,-0.5084441900253296,-1.386415958404541
1730998155103114200,35.1241142578125,-1.6955242156982422,0.7084861993789673,-0.09278406202793121
1730998155141052200,35.16205224609375,-0.12847328186035156,-0.22633063793182373,-0.6151289343833923
1730998155178990000,35.19998999023438,0.3459587097167969,-0.14764730632305145,-0.35399526357650757
1730998155216928000,35.23792797851563,0.4671497344970703,0.25703203678131104,-0.19868844747543335
1730998155254866000,35.27586596679687,-0.7846202850341797,-0.4625377357006073,-0.007616706192493439
1730998155292803800,35.31380395507812,-1.4172325134277344,-0.6116978526115417,0.29898276925086975
1730998155330742000,35.35174194335937,1.0238046646118164,1.8506879806518555,-0.4671780467033386
1730998155368680000,35.38967993164062,1.1948318481445312,0.3951425552368164,-1.6054340600967407
1730998155406617900,35.42761791992187,1.8774185180664062,-0.6786847114562988,0.2952533960342407
1730998155444555800,35.4655556640625,2.3114051818847656,-0.20736238360404968,1.6048920154571533
1730998155482493700,35.50349365234375,1.4503650665283203,-0.8530128002166748,1.2001981735229492
1730998155520431600,35.541431640625,2.4607715606689453,-0.145964115858078,0.6600403189659119
1730998155558369800,35.57936987304687,-0.4051694869995117,-0.9079363346099854,0.20765875279903412
1730998155596307700,35.6173076171875,-2.8588829040527344,0.14173096418380737,-0.06869269162416458
1730998155634245600,35.65524560546875,-1.5546131134033203,0.4381031394004822,0.19624383747577667
1730998155672183600,35.69318359375,0.6341266632080078,-0.5549767017364502,0.7517738938331604
1730998155710121500,35.73112158203125,1.3654747009277344,-0.9409128427505493,0.6324411630630493
1730998155748059400,35.76905932617188,1.3387441635131836,-0.45937809348106384,0.07761141657829285
1730998155785997600,35.80699755859375,1.2143526077270508,-0.4884399473667145,0.459369957447052
1730998155823935500,35.844935546875,-0.29913902282714844,-0.09781646728515625,-0.0958259105682373
1730998155861873400,35.88287329101563,-1.122049331665039,0.8914409875869751,-0.11464957892894745
1730998155899811300,35.92081127929688,-0.0696706771850586,-0.18765360116958618,-0.48747846484184265
1730998155937749200,35.95874926757813,-0.578373908996582,-0.5123465061187744,0.043737735599279404
1730998155975687200,35.99668725585938,-0.29061031341552734,-0.7658793330192566,0.19409780204296112
1730998156013625000,36.034625,0.8010835647583008,-0.3827584981918335,0.6943783164024353
1730998156051563300,36.07256323242188,-0.5294532775878906,-0.21071960031986237,-0.08184018731117249
1730998156089501200,36.11050122070313,-0.4311990737915039,-0.8147938251495361,-0.20217666029930115
1730998156127439000,36.14843920898438,-1.096414566040039,-1.6209825277328491,0.9287365078926086
1730998156165377000,36.186376953125,0.3504037857055664,0.6981452703475952,0.5326008200645447
1730998156203315000,36.22431494140625,0.015921592712402344,0.5251936912536621,0.28534868359565735
1730998156241252900,36.2622529296875,0.5683307647705078,0.1355672925710678,-0.44003087282180786
1730998156279191000,36.30019091796875,0.5221261978149414,0.39505037665367126,0.058976538479328156
1730998156317129000,36.33812890625,-1.2681503295898438,0.4946534037590027,0.047589417546987534
1730998156355067000,36.37606689453125,0.5635461807250977,0.11645007133483887,0.623754620552063
1730998156393004800,36.4140048828125,-1.9139375686645508,0.05652213841676712,-1.1063793897628784
1730998156430942700,36.45194262695313,0.5734395980834961,-0.11630778014659882,-0.44012922048568726
1730998156468880600,36.48988061523438,2.3715858459472656,0.6864433288574219,-0.1954987347126007
1730998156506818600,36.52781860351563,0.20705795288085938,0.7223747968673706,0.7295048832893372
1730998156544756700,36.5657568359375,0.46363162994384766,0.6869405508041382,-0.2489621937274933
1730998156582694700,36.60369458007813,0.6960811614990234,0.38214871287345886,0.22356510162353516
1730998156620632600,36.64163256835938,1.1340951919555664,0.3598501980304718,0.24356584250926971
1730998156658570500,36.67957055664063,-0.27987194061279297,-0.8029455542564392,1.0938199758529663
1730998156696508400,36.71750830078125,0.16579627990722656,-0.5784849524497986,-0.2265869677066803
1730998156734446300,36.7554462890625,0.8435811996459961,-0.5913175940513611,-0.3718547224998474
1730998156772384300,36.79338427734375,1.4373435974121094,0.27830418944358826,-0.6580873727798462
1730998156810322400,36.83132250976563,-0.5947036743164062,-0.724480390548706,-0.3142986297607422
1730998156848260400,36.86926025390625,0.7777576446533203,-0.33822041749954224,-0.49939024448394775
1730998156886198300,36.9071982421875,1.2678213119506836,0.88124680519104,0.40800046920776367
1730998156924136200,36.94513623046875,1.157364845275879,0.5323783755302429,0.14544455707073212
1730998156962074000,36.98307421875,-0.0033597946166992188,0.2297075390815735,0.535101592540741
1730998157000012000,37.021011962890626,0.06666088104248047,-0.49273058772087097,-0.779159665107727
1730998157037950000,37.058949951171876,-0.25301361083984375,-0.21136637032032013,-0.3509312570095062
1730998157075888000,37.09688818359375,1.1433286666870117,-0.2906898260116577,-0.9000823497772217
1730998157113826000,37.134825927734376,-0.6196250915527344,-0.6202949285507202,-0.1501065045595169
1730998157151764000,37.172763916015626,0.37180137634277344,-0.4354984760284424,0.1342468559741974
1730998157189702000,37.210701904296876,0.5317821502685547,-0.928168535232544,-0.11053422093391418
1730998157227639800,37.248639892578126,1.8171558380126953,-0.1131080761551857,-0.5833517909049988
1730998157265577700,37.28657763671875,0.9626522064208984,-0.31779971718788147,-0.5440031290054321
1730998157303515600,37.324515625,0.7049331665039062,-0.2961406111717224,-0.1526641845703125
1730998157341453800,37.362453857421876,0.5111360549926758,-0.14696356654167175,-0.466962069272995
1730998157379391500,37.4003916015625,1.3623008728027344,0.7843601107597351,1.1032063961029053
1730998157417329700,37.43832958984375,-0.38338184356689453,-0.1229255199432373,-0.13892829418182373
1730998157455267600,37.476267578125,0.6804533004760742,-0.03333862125873566,0.05309365689754486
1730998157493205500,37.51420556640625,-0.49454593658447266,-0.1165243536233902,-0.5037205219268799
1730998157531143400,37.552143310546874,-2.050942897796631,-0.8522505164146423,-0.21845728158950806
1730998157569081300,37.590081298828125,-0.4138975143432617,0.698945164680481,0.1747111678123474
1730998157607019300,37.628019287109375,-0.4199390411376953,0.7831240892410278,0.4193756580352783
1730998157644957200,37.665957275390625,2.39029598236084,0.43842795491218567,-0.14281678199768066
1730998157682895400,37.703895263671875,-1.8381147384643555,0.4776090681552887,-0.10841032862663269
1730998157720833300,37.741833251953125,-2.228806495666504,0.007301300764083862,0.48866385221481323
1730998157758771200,37.779771240234375,0.6019821166992188,0.15292510390281677,-0.5800871253013611
1730998157796709000,37.817709228515625,1.8707313537597656,-0.0630396232008934,-0.5575067400932312
1730998157834647000,37.85564697265625,0.3396759033203125,0.4002271890640259,-0.02116987854242325
1730998157872585000,37.8935849609375,0.8755073547363281,-0.24491997063159943,0.568618893623352
1730998157910523000,37.93152294921875,2.1437978744506836,-0.48577797412872314,0.3942191004753113
1730998157948460800,37.96946069335937,1.8555269241333008,-0.22631919384002686,0.027306094765663147
1730998157986399000,38.00739892578125,-0.14251041412353516,0.015349825844168663,-0.04084605723619461
1730998158024337000,38.0453369140625,-0.8058328628540039,0.677040159702301,0.8631078600883484
1730998158062274800,38.08327490234375,-0.6481723785400391,0.11690107733011246,0.2508365511894226
1730998158100212700,38.12121264648437,-0.06878471374511719,-0.8783777952194214,-0.09750881791114807
1730998158138150700,38.15915063476562,0.7209634780883789,-0.4509606957435608,0.13956888020038605
1730998158176088600,38.197088623046874,-0.27108287811279297,-0.5929267406463623,0.6170148253440857
1730998158214026500,38.235026611328124,-0.515233039855957,-0.6398189067840576,1.0743422508239746
1730998158251964400,38.27296435546875,0.26804065704345703,-0.4000798165798187,-0.07453960180282593
1730998158289902300,38.31090234375,-0.814849853515625,-0.2185726910829544,0.3824801743030548
1730998158327840300,38.34884033203125,-0.10810565948486328,-0.3614670932292938,0.678739070892334
1730998158365778400,38.3867783203125,0.0661020278930664,-0.6122219562530518,0.7528327703475952
1730998158403716400,38.42471630859375,0.041840553283691406,-0.9989724159240723,-0.7667894959449768
1730998158441654300,38.462654296875,0.9341230392456055,0.037100911140441895,0.5133006572723389
1730998158479592200,38.50059228515625,-0.7942724227905273,0.5355708599090576,-0.014213096350431442
1730998158517530000,38.53853002929687,-0.20273685455322266,0.061652377247810364,1.1349987983703613
1730998158555468000,38.57646801757812,0.13312816619873047,-0.1785566210746765,0.5913361310958862
1730998158593406000,38.61440600585937,0.4690837860107422,-0.25508809089660645,0.9797408580780029
1730998158631343900,38.65234375,0.5823640823364258,-0.7378573417663574,0.39424383640289307
1730998158669282000,38.69028198242187,0.15523242950439453,0.3386687636375427,0.3994249701499939
1730998158707220000,38.72821997070312,0.30563926696777344,0.8957763910293579,0.6807816624641418
1730998158745158000,38.76615795898437,0.6117658615112305,0.49214279651641846,0.6463126540184021
1730998158783095800,38.804095703125,-1.5249433517456055,0.2981913387775421,-0.47327613830566406
1730998158821033700,38.84203369140625,1.511734962463379,-0.11687855422496796,0.40688106417655945
1730998158858971600,38.8799716796875,1.134352684020996,0.46021151542663574,0.7954943180084229
1730998158896909600,38.91790966796875,0.5662412643432617,0.346017062664032,-0.2173546701669693
1730998158934847500,38.95584741210938,-0.7590656280517578,0.3420160114765167,0.535204291343689
1730998158972785400,38.99378540039063,1.4931793212890625,0.7594364285469055,0.4364762008190155
1730998159010723300,39.03172338867188,0.7194318771362305,0.3293859362602234,0.9622789621353149
1730998159048661200,39.0696611328125,0.8685398101806641,0.15815165638923645,-0.08343847095966339
1730998159086599200,39.10759912109375,0.23093700408935547,-0.6160684823989868,0.12983548641204834
1730998159124537300,39.14553735351563,-0.8373451232910156,0.32515326142311096,0.3540146052837372
1730998159162475300,39.18347534179688,0.8545265197753906,0.08548098802566528,0.9241299033164978
1730998159200413200,39.2214130859375,0.5145092010498047,-0.5470098257064819,-0.8563789129257202
1730998159238351000,39.25935107421875,0.3641090393066406,-0.16906383633613586,-0.008494197390973568
1730998159276289000,39.2972890625,-0.5443105697631836,-0.03375375270843506,-0.4423198401927948
1730998159314227000,39.33522705078125,-0.23795127868652344,-0.13366921246051788,-0.3101494014263153
1730998159352164900,39.37316479492188,0.7744836807250977,-0.8639311194419861,-0.14658159017562866
1730998159390102800,39.41110278320313,0.07994556427001953,0.12750165164470673,-0.6781237721443176
1730998159428040700,39.44904077148438,0.4084768295288086,-0.9332837462425232,0.23471161723136902
1730998159465978600,39.486978515625,-1.4106731414794922,0.7852193117141724,-0.5772531032562256
1730998159503916500,39.52491650390625,-2.305339813232422,-0.22918298840522766,-0.5542148351669312
1730998159541854500,39.5628544921875,-1.1896781921386719,0.8328037858009338,-0.37028059363365173
1730998159579792600,39.60079272460938,-0.3412761688232422,-0.7616631388664246,0.3070198595523834
1730998159617730600,39.63873046875,0.6498594284057617,-0.19646862149238586,0.0021037496626377106
1730998159655668500,39.67666845703125,0.6911420822143555,-0.1342056691646576,-0.8246830105781555
1730998159693606400,39.7146064453125,-1.8679847717285156,1.146139144897461,-0.32228517532348633
1730998159731544300,39.75254443359375,-2.3957576751708984,0.4468419849872589,0.042260266840457916
1730998159769482200,39.790482177734376,-0.0863494873046875,-0.022943124175071716,-0.7469266057014465
1730998159807420200,39.828420166015626,0.5793924331665039,0.2849627137184143,-0.40039724111557007
1730998159845358000,39.866358154296876,-0.501704216003418,-0.3527928292751312,-0.566702663898468
1730998159883296000,39.9042958984375,0.3147726058959961,0.32056549191474915,0.36367297172546387
1730998159921234000,39.94223388671875,-0.2522096633911133,0.1408519297838211,-0.979127049446106
1730998159959171800,39.980171875,2.4673986434936523,-0.040499068796634674,-0.7744889855384827
1730998159997110000,40.018110107421876,0.6370706558227539,-0.010125622153282166,-0.4001765251159668
1730998160035048000,40.0560478515625,-1.8024168014526367,-0.07158367335796356,0.2078476846218109
1730998160072985900,40.09398583984375,-0.23255157470703125,0.05138210952281952,-0.21699076890945435
1730998160110923300,40.13192333984375,-0.7411355972290039,0.3472859859466553,-0.27234476804733276
1730998160148861700,40.16986181640625,-0.3669757843017578,0.06595391035079956,-0.454655259847641
1730998160186799600,40.207799560546874,-0.5636739730834961,0.01049419492483139,-0.12378469109535217
1730998160224737500,40.245737548828124,1.090348243713379,-0.2510090470314026,-0.5587469339370728
1730998160262675500,40.283675537109374,-1.1123685836791992,-0.16286908090114594,-0.6151282787322998
1730998160300613400,40.32161328125,0.17142391204833984,-1.0871562957763672,-0.0653018057346344
1730998160338551300,40.35955126953125,-0.34921741485595703,0.07222684472799301,-0.5236901044845581
1730998160376489200,40.3974892578125,-0.20261287689208984,-0.7029271721839905,-0.21629975736141205
1730998160414427100,40.43542724609375,-1.0931062698364258,-0.4120275378227234,-0.32656145095825195
1730998160452365000,40.47336499023437,-0.5905895233154297,-0.3089320957660675,-0.08397775888442993
1730998160490303000,40.51130297851562,-0.11936473846435547,-0.7303575277328491,-0.20834365487098694
1730998160528241000,40.54924096679687,-0.33203983306884766,-0.31582874059677124,-0.14639544486999512
1730998160566179000,40.58717895507812,0.48075103759765625,-0.6510743498802185,-0.283445805311203
1730998160604117000,40.62511694335937,-3.85770845413208,1.3091843128204346,-0.825873613357544
1730998160642055000,40.66305493164062,-1.326859474182129,-0.19633848965168,-0.06095482409000397
1730998160679992800,40.70099291992187,0.2479991912841797,-1.3315587043762207,-0.14907485246658325
1730998160717930800,40.7389306640625,0.2620248794555664,-0.9821313619613647,-0.6286418437957764
1730998160755868700,40.77686865234375,0.4996070861816406,-1.6486995220184326,-0.658725380897522
1730998160793806600,40.814806640625,1.1534385681152344,-2.271568536758423,0.038937151432037354
1730998160831744500,40.85274462890625,0.10467815399169922,-1.6478276252746582,-0.0783575028181076
1730998160869682400,40.89068237304687,-0.15798187255859375,-1.747191309928894,-0.2996249496936798
1730998160907620400,40.92862036132812,-0.02320098876953125,-1.724813461303711,0.0319545716047287
1730998160945558300,40.96655834960937,0.15505695343017578,-1.8262163400650024,0.2835826277732849
1730998160983496200,41.00449609375,0.008641242980957031,-1.540229320526123,-0.1489063799381256
1730998161021434000,41.04243408203125,-0.9644622802734375,-0.6768532991409302,-0.35312026739120483
1730998161059372000,41.0803720703125,0.23132896423339844,-1.7583787441253662,0.17622189223766327
1730998161097310000,41.11831005859375,0.31896305084228516,-1.7861955165863037,-0.3409489393234253
1730998161135248000,41.15624780273438,0.19472980499267578,-1.5292903184890747,0.20171600580215454
1730998161173185800,41.19418579101563,0.012572288513183594,-1.6823742389678955,0.02108342945575714
1730998161211123700,41.23212377929688,0.04107379913330078,-1.319318413734436,-0.034980952739715576
1730998161249061600,41.2700615234375,0.00063323974609375,-1.146317481994629,0.2949395775794983
1730998161286999600,41.30799951171875,-0.02697277069091797,-0.7530061602592468,-0.12005196511745453
1730998161324937700,41.34593774414063,0.08026123046875,-0.6269907355308533,-0.26728373765945435
1730998161362875600,41.38387573242188,0.03652763366699219,-0.08252847194671631,0.23427343368530273
1730998161400813300,41.421813232421876,0.010259628295898438,0.2110915184020996,0.11060220003128052
1730998161438751200,41.459751220703126,0.03613471984863281,0.5241084098815918,-0.07999640703201294
1730998161476689400,41.497689453125,-0.014157295227050781,0.7876178026199341,0.18055486679077148
1730998161514627300,41.53562744140625,-0.011781692504882812,0.8144497871398926,0.11297158896923065
1730998161552565200,41.573565185546876,0.0025768280029296875,0.7044944763183594,0.10934781283140182
1730998161590503200,41.611503173828126,0.03813362121582031,0.643402099609375,0.05544649064540863
1730998161628441000,41.649441162109376,-0.0029392242431640625,0.550153374671936,-0.03212399780750275
1730998161666379000,41.68737890625,-0.00763702392578125,0.502711832523346,0.14245009422302246
1730998161704317000,41.72531689453125,0.0035085678100585938,0.3763943314552307,0.014098651707172394
1730998161742254800,41.7632548828125,-0.009799957275390625,0.30590176582336426,0.025726541876792908
1730998161780192800,41.80119287109375,0.022426605224609375,0.22432351112365723,0.06785455346107483
1730998161818130700,41.839130615234374,-0.0103912353515625,0.15637139976024628,0.007115393877029419
1730998161856068600,41.877068603515625,0.007821083068847656,0.12575623393058777,0.0524556040763855
1730998161894006500,41.915006591796875,0.005600929260253906,0.09933137893676758,0.016741663217544556
1730998161931944400,41.9529443359375,0.003238677978515625,0.08419686555862427,0.019731342792510986
1730998161969882400,41.99088232421875,-0.001007080078125,0.09056916832923889,0.02592954784631729
1730998162007820300,42.0288203125,0.01027679443359375,0.09601797163486481,0.012475691735744476
1730998162045758200,42.06675830078125,-0.0000095367431640625,0.1031380295753479,0.03481169790029526
1730998162083696000,42.10469604492187,-0.004656791687011719,0.0956491082906723,0.018639519810676575
1730998162121634000,42.14263403320312,0.0004901885986328125,0.0891181081533432,0.0009481757879257202
1730998162159572000,42.18057202148437,-0.00006198883056640625,0.08363111317157745,0.018805064260959625
1730998162197510000,42.21851000976562,0.015898704528808594,0.08137477934360504,0.01754695177078247
1730998162235447800,42.25644775390625,0.008654594421386719,0.06290417909622192,0.01444254070520401
1730998162273385700,42.2943857421875,0.003952980041503906,0.044923678040504456,0.008648499846458435
1730998162311323600,42.33232373046875,0.00101470947265625,0.03717398643493652,0.009496726095676422
1730998162349261600,42.37026147460937,-0.0019817352294921875,0.04495967924594879,0.005603492259979248
1730998162387199500,42.40819946289062,0.007403373718261719,0.031427785754203796,0.012182064354419708
1730998162425137400,42.44613745117187,0.0023355484008789062,0.028527632355690002,0.008879981935024261
1730998162463075300,42.48407543945312,-0.013747215270996094,0.030235037207603455,0.008236192166805267
1730998162501013200,42.52201318359375,-0.0019598007202148438,0.023068249225616455,0.0077451542019844055
1730998162538951200,42.559951171875,-0.0047626495361328125,0.0316472053527832,0.0006495863199234009
1730998162576889000,42.59788916015625,-0.0046234130859375,0.024326816201210022,0.011908501386642456
1730998162614827000,42.63582690429688,0.011328697204589844,0.015016376972198486,0.006643213331699371
1730998162652765000,42.67376489257813,-0.002956390380859375,0.013137415051460266,0.003535829484462738
1730998162690702800,42.71170288085938,0.0017604827880859375,0.015981614589691162,0.0033203065395355225
1730998162728640800,42.74964086914063,-0.011492729187011719,0.018645212054252625,-0.001538701355457306
1730998162766578700,42.78757861328125,-0.0023355484008789062,0.0099678635597229,-0.006251305341720581
1730998162804516600,42.8255166015625,0.006836891174316406,0.00913567841053009,0.0009779781103134155
1730998162842454500,42.86345458984375,-0.015253067016601562,0.01704372465610504,0.007803075015544891
1730998162880392400,42.901392333984376,-0.005942344665527344,0.004414260387420654,0.0028571709990501404
1730998162918330400,42.939330322265626,0.010904312133789062,0.010460898280143738,0.00561157613992691
1730998162956268300,42.977268310546876,0.0062122344970703125,0.0029005706310272217,-0.001630440354347229
1730998162994206200,43.015206298828126,0.004288673400878906,-0.0023407042026519775,0.007736004889011383
1730998163032144100,43.05314404296875,-0.0009450912475585938,0.0066743940114974976,-0.0018693804740905762
1730998163070082000,43.09108203125,-0.008001327514648438,0.001928076148033142,-0.001521483063697815
1730998163108020000,43.12902001953125,-0.00047397613525390625,0.00433485209941864,0.005554825067520142
1730998163145958000,43.1669580078125,-0.00080108642578125,0.012676388025283813,-0.0036675408482551575
1730998163183895800,43.204895751953124,-0.0033502578735351562,0.014315173029899597,-0.0031238123774528503
1730998163221833700,43.242833740234374,0.005681037902832031,0.004847332835197449,0.014697723090648651
1730998163259771600,43.280771728515624,-0.00033283233642578125,0.006931796669960022,0.007251165807247162
1730998163297709600,43.31870947265625,0.013661384582519531,0.012065798044204712,0.03107384219765663
1730998163335647500,43.3566474609375,-0.004900932312011719,-0.03785477578639984,-0.12267596274614334
1730998163373585400,43.39458544921875,-0.0027332305908203125,0.009176775813102722,0.10739227384328842
1730998163411523300,43.4325234375,-0.0019378662109375,-0.00023786723613739014,-0.04266016185283661
1730998163449461200,43.47046118164062,-0.001850128173828125,-0.004888743162155151,0.019226081669330597
1730998163487399200,43.50839916992187,0.008147239685058594,0.0016611814498901367,-0.007658727467060089
1730998163525337000,43.54633715820312,0.0038805007934570312,-0.0008102208375930786,-0.012986555695533752
1730998163563275000,43.58427490234375,-0.0057086944580078125,-0.0005804449319839478,0.009565070271492004
1730998163601213000,43.622212890625,0.0055866241455078125,0.010781139135360718,-0.010563306510448456
1730998163639150800,43.66015087890625,-0.008081436157226562,-0.005211815237998962,0.011348150670528412
1730998163677088800,43.6980888671875,-0.0009250640869140625,-0.007545605301856995,-0.01171758770942688
1730998163715026700,43.73602661132813,0.006335258483886719,0.0033132433891296387,0.011574722826480865
1730998163752964600,43.77396459960938,0.005652427673339844,-0.005468592047691345,-0.004726186394691467
1730998163790902500,43.81190258789063,-0.006009101867675781,-0.0011159330606460571,0.00007715821266174316
1730998163828840400,43.84984033203125,-0.014781951904296875,0.0032456517219543457,-0.011431403458118439
1730998163866778400,43.8877783203125,0.00628662109375,-0.005781188607215881,0.012337028980255127
1730998163904716300,43.92571630859375,-0.005444526672363281,0.008276596665382385,-0.008927911520004272
1730998163942654200,43.963654296875,0.009339332580566406,-0.0011680126190185547,0.0009568259119987488
1730998163980592000,44.00159204101563,0.00368499755859375,0.007869288325309753,0.005399048328399658
1730998164018530000,44.03953002929688,-0.0062580108642578125,-0.003789380192756653,0.005338676273822784
1730998164056468000,44.07746801757813,0.004092216491699219,-0.0058989375829696655,0.007170513272285461
1730998164094406000,44.11540600585938,-0.0008716583251953125,-0.007387533783912659,0.0023762956261634827
1730998164132343800,44.15334375,-0.0009002685546875,0.008602455258369446,0.004763670265674591
1730998164170281700,44.19128173828125,-0.007460594177246094,-0.010170921683311462,0.0022783279418945312
1730998164208219600,44.2292197265625,0.015958786010742188,-0.002673432230949402,0.004065476357936859
1730998164246157600,44.267157470703125,0.0030565261840820312,-0.009659767150878906,0.0043786317110061646
1730998164284095500,44.305095458984376,0.005242347717285156,0.004794791340827942,-0.0019937679171562195
1730998164322033400,44.343033447265626,0.004927635192871094,0.0022614002227783203,-0.004504308104515076
1730998164359971300,44.380971435546876,0.0031414031982421875,-0.002278760075569153,0.002931855618953705
1730998164397909200,44.4189091796875,0.000415802001953125,-0.0024160295724868774,-0.004248611629009247
1730998164435847200,44.45684716796875,-0.0038976669311523438,-0.005050793290138245,-0.0037678033113479614
1730998164473785000,44.49478515625,0.0029296875,-0.00009691715240478516,-0.0010793432593345642
1730998164511723000,44.532722900390624,-0.014594078063964844,0.001917824149131775,0.0217709019780159
1730998164549661000,44.570660888671874,0.021904945373535156,0.004217401146888733,0.013678409159183502
1730998164587598800,44.608598876953124,0.0013256072998046875,0.001996546983718872,0.004057690501213074
1730998164625536800,44.646536865234374,-0.0049686431884765625,-0.0032656192779541016,-0.00025594234466552734
1730998164663474400,44.68447436523437,0.0068759918212890625,-0.0010595321655273438,0.008822180330753326
1730998164701412400,44.72241235351562,0.008898735046386719,-0.003715232014656067,0.0018381178379058838
1730998164739350300,44.76035034179687,-0.01253509521484375,-0.008344143629074097,-0.0002476125955581665
1730998164777288200,44.7982880859375,0.004398345947265625,0.005465835332870483,0.0025645270943641663
1730998164815226000,44.83622607421875,-0.0000934600830078125,0.007129848003387451,0.00028226524591445923
1730998164853164000,44.8741640625,0.0065765380859375,0.004595443606376648,0.005147889256477356
1730998164891102000,44.91210205078125,0.00423431396484375,-0.013368293642997742,0.006640858948230743
1730998164929040000,44.95003979492188,-0.0023756027221679688,-0.0012777447700500488,-0.0003339499235153198
1730998164966977800,44.98797778320313,0.0150909423828125,0.0003620833158493042,0.0039934515953063965
1730998165004915700,45.02591577148438,-0.012414932250976562,0.002954259514808655,0.002093866467475891
1730998165042853600,45.063853515625,0.015181541442871094,0.000620722770690918,0.004398830235004425
1730998165080791600,45.10179150390625,-0.010072708129882812,0.00506921112537384,0.0020613446831703186
1730998165118729500,45.1397294921875,0.01990985870361328,0.004767239093780518,0.00587877631187439
1730998165156667400,45.17766748046875,-0.015276908874511719,0.0005865097045898438,0.001118771731853485
1730998165194605300,45.21560522460938,-0.0005598068237304688,0.00993773341178894,-0.005260974168777466
1730998165232543200,45.25354321289063,0.00514984130859375,0.004565641283988953,0.0021081343293190002
1730998165270481200,45.29148120117188,0.0022077560424804688,0.0041691213846206665,0.004121340811252594
1730998165308419000,45.32941918945313,0.007495880126953125,-0.005229577422142029,0.020117156207561493
1730998165346357000,45.36735693359375,-0.015671730041503906,0.0020918995141983032,-0.008363798260688782
1730998165384295000,45.405294921875,0.015038490295410156,-0.006952300667762756,0.0014472529292106628
1730998165422232800,45.44323291015625,0.00550079345703125,0.0024414807558059692,0.0034212395548820496
1730998165460170500,45.48117041015625,-0.005518913269042969,0.004666775465011597,0.0011695772409439087
1730998165498108400,45.5191083984375,-0.008065223693847656,0.004391521215438843,0.005946002900600433
1730998165536046300,45.55704638671875,0.0033626556396484375,-0.00028771162033081055,-0.007881015539169312
1730998165573984300,45.594984375,0.012419700622558594,-0.006554901599884033,0.005664005875587463
1730998165611922200,45.63292211914062,-0.006256103515625,0.007326990365982056,0.0073186978697776794
1730998165649860000,45.67086010742187,-0.005454063415527344,-0.008557096123695374,-0.000011116266250610352
1730998165687798000,45.70879809570312,0.0036764144897460938,-0.0016188472509384155,0.002005249261856079
1730998165725736000,45.74673583984375,0.00365447998046875,-0.003847360610961914,-0.005073972046375275
1730998165763673900,45.784673828125,0.0012493133544921875,-0.0058351606130599976,0.013692528009414673
1730998165801611800,45.82261181640625,-0.010191917419433594,-0.010646358132362366,-0.005330577492713928
1730998165839549700,45.8605498046875,0.0027189254760742188,0.0035295188426971436,-0.017444387078285217
1730998165877487600,45.89848754882812,-0.0014677047729492188,0.00815613567829132,-0.002520225942134857
1730998165915425500,45.93642553710937,0.0077342987060546875,0.00813351571559906,0.0020264238119125366
1730998165953363500,45.97436352539062,-0.02211761474609375,-0.006207257509231567,-0.01880773901939392
1730998165991301400,46.01230126953125,0.027629852294921875,0.0034860819578170776,0.00031053274869918823
1730998166029239300,46.0502392578125,-0.00110626220703125,0.007984235882759094,-0.00650063157081604
1730998166067177000,46.08817700195313,0.0007715225219726562,0.003077492117881775,-0.000014692544937133789
1730998166105115000,46.12611499023438,-0.0037078857421875,0.003096967935562134,0.004664279520511627
1730998166143052800,46.164052734375,-0.01297760009765625,0.0010814368724822998,0.006297662854194641
1730998166180990700,46.20199072265625,0.008397102355957031,-0.0033308863639831543,0.008640557527542114
1730998166218928600,46.2399287109375,-0.0013017654418945312,-0.005524992942810059,-0.021557621657848358
1730998166256866600,46.277866455078126,0.0008487701416015625,0.005723819136619568,0.006660878658294678
1730998166294804500,46.315804443359376,0.005276679992675781,-0.0038156360387802124,0.006474040448665619
