time,seconds_elapsed,z,y,x
1730998120174180600,0.1951806640625,0.00022906772210262716,-0.0006108472589403391,-0.00030542362947016954
1730998120207513600,0.228513671875,0.0004581354442052543,-0.0006108472589403391,0.00015271181473508477
1730998120240846600,0.2618466796875,-0.00007635590736754239,-0.0006108472589403391,-0.00007635590736754239
1730998120274179600,0.2951796875,0.0004581354442052543,-0.0006108472589403391,-0.0006108472589403391
1730998120307512600,0.3285126953125,0.00022906772210262716,-0.0006108472589403391,0.00015271181473508477
1730998120340845600,0.361845458984375,0.0008399150101467967,-0.00030542362947016954,0.00007635590736754239
1730998120374178600,0.395178466796875,0.00038177953683771193,-0.0006108472589403391,-0.00007635590736754239
1730998120407511800,0.42851171875,0.00038177953683771193,-0.0006108472589403391,-0.00007635590736754239
1730998120440844800,0.4618447265625,-0.00015271181473508477,-0.0006108472589403391,0.00015271181473508477
1730998120474177800,0.495177734375,0.0004581354442052543,-0.0006108472589403391,-0.00007635590736754239
1730998120507510800,0.5285107421875,0,-0.0006108472589403391,-0.00007635590736754239
1730998120540843800,0.56184375,0.0004581354442052543,-0.0011453386396169662,-0.00007635590736754239
1730998120574176800,0.5951767578125,0.00030542362947016954,0.00030542362947016954,-0.00007635590736754239
1730998120607509800,0.628509765625,0.00015271181473508477,0.00038177953683771193,-0.00038177953683771193
1730998120640842800,0.6618427734375,-0.00015271181473508477,-0.00007635590736754239,-0.00007635590736754239
1730998120674175700,0.69517578125,-0.00015271181473508477,-0.0006108472589403391,-0.00007635590736754239
1730998120707509000,0.728509033203125,0.0004581354442052543,-0.0006108472589403391,-0.00007635590736754239
1730998120740842000,0.761842041015625,0.00015271181473508477,0,-0.000687203137204051
1730998120774175000,0.795175048828125,0.0004581354442052543,-0.0006108472589403391,-0.00007635590736754239
1730998120807508000,0.828508056640625,0.0004581354442052543,-0.0005344913806766272,-0.00007635590736754239
1730998120840841000,0.861841064453125,-0.00015271181473508477,-0.0004581354442052543,-0.0005344913806766272
1730998120874174000,0.895174072265625,0.0004581354442052543,-0.00022906772210262716,-0.00007635590736754239
1730998120907507000,0.9285068359375,0.0004581354442052543,-0.00015271181473508477,-0.0004581354442052543
1730998120940840000,0.96183984375,0.0004581354442052543,-0.0006108472589403391,-0.00007635590736754239
1730998120974173000,0.9951728515625,-0.00015271181473508477,-0.0006108472589403391,-0.00007635590736754239
1730998121007506200,1.028506103515625,0.00022906772210262716,-0.0006108472589403391,0
1730998121040839200,1.061839111328125,0.0004581354442052543,-0.00015271181473508477,0.00038177953683771193
1730998121074172200,1.095172119140625,0.0009926267666742206,-0.0006108472589403391,-0.00007635590736754239
1730998121107505200,1.128505126953125,0.0004581354442052543,-0.0006108472589403391,-0.00007635590736754239
1730998121140838100,1.161838134765625,0.00022906772210262716,-0.00022906772210262716,-0.00007635590736754239
1730998121174171100,1.195171142578125,0.0004581354442052543,-0.00038177953683771193,-0.00007635590736754239
1730998121207504100,1.228504150390625,-0.00015271181473508477,-0.0006108472589403391,-0.00007635590736754239
1730998121240837000,1.261837158203125,0.00038177953683771193,-0.0006108472589403391,-0.0006108472589403391
1730998121274170000,1.295170166015625,-0.00015271181473508477,-0.0006108472589403391,-0.00007635590736754239
1730998121307503400,1.32850341796875,0.00007635590736754239,-0.0006108472589403391,-0.00007635590736754239
1730998121340836400,1.36183642578125,0.00038177953683771193,-0.0006108472589403391,-0.00007635590736754239
1730998121374169300,1.39516943359375,0.00038177953683771193,0,-0.00007635590736754239
1730998121407502300,1.42850244140625,0.0004581354442052543,-0.00015271181473508477,-0.00007635590736754239
1730998121440835300,1.46183544921875,0.0004581354442052543,-0.0006108472589403391,-0.00007635590736754239
1730998121474168300,1.495168212890625,-0.00007635590736754239,-0.0006108472589403391,-0.00007635590736754239
1730998121507501300,1.528501220703125,0.0004581354442052543,-0.0006108472589403391,-0.0006108472589403391
1730998121540834300,1.561834228515625,0.0008399150101467967,-0.0006108472589403391,-0.00007635590736754239
1730998121574167300,1.595167236328125,0.0004581354442052543,0,-0.00007635590736754239
1730998121607500500,1.62850048828125,-0.00015271181473508477,0,-0.0005344913806766272
1730998121640833500,1.66183349609375,-0.00015271181473508477,-0.0011453386396169662,-0.00007635590736754239
1730998121674166500,1.69516650390625,-0.00015271181473508477,-0.0006108472589403391,-0.00007635590736754239
1730998121707499500,1.72849951171875,0.00015271181473508477,-0.00030542362947016954,-0.00007635590736754239
1730998121740832500,1.76183251953125,0.0004581354442052543,-0.00007635590736754239,-0.00007635590736754239
1730998121774165500,1.79516552734375,-0.00015271181473508477,-0.0006108472589403391,0.0005344913806766272
1730998121807498500,1.82849853515625,-0.00015271181473508477,-0.00015271181473508477,-0.00007635590736754239
1730998121840831500,1.86183154296875,0.00015271181473508477,-0.0006108472589403391,-0.00007635590736754239
1730998121874164500,1.89516455078125,-0.00015271181473508477,-0.00015271181473508477,-0.00007635590736754239
1730998121907497700,1.928497802734375,-0.00015271181473508477,-0.0012216945178806782,-0.00007635590736754239
1730998121940830700,1.961830810546875,0,-0.00022906772210262716,-0.000687203137204051
1730998121974163700,1.995163818359375,0.0004581354442052543,-0.0006108472589403391,-0.00007635590736754239
1730998122007496700,2.02849658203125,-0.00015271181473508477,-0.00038177953683771193,-0.00007635590736754239
1730998122040829700,2.06182958984375,0.0004581354442052543,0,-0.00007635590736754239
1730998122074162700,2.09516259765625,0.0006108472589403391,-0.0006108472589403391,-0.00015271181473508477
1730998122107495700,2.12849560546875,-0.00015271181473508477,0,-0.00007635590736754239
1730998122140828700,2.16182861328125,0,-0.00015271181473508477,-0.00007635590736754239
1730998122174162000,2.195161865234375,0.0004581354442052543,-0.0006108472589403391,-0.0006108472589403391
1730998122207495000,2.228494873046875,0.0004581354442052543,-0.00007635590736754239,-0.00007635590736754239
1730998122240828000,2.261827880859375,-0.000687203137204051,0.0004581354442052543,0.00007635590736754239
1730998122274161000,2.295160888671875,-0.00030542362947016954,0.0004581354442052543,-0.00038177953683771193
1730998122307494000,2.328493896484375,-0.00030542362947016954,0.00038177953683771193,0.00007635590736754239
1730998122340827000,2.361826904296875,0.00022906772210262716,-0.00015271181473508477,0.00007635590736754239
1730998122374160000,2.395159912109375,0.00030542362947016954,0.00007635590736754239,0.00007635590736754239
1730998122407492900,2.428492919921875,0.00030542362947016954,-0.00015271181473508477,0.00007635590736754239
1730998122440825900,2.461825927734375,-0.00030542362947016954,-0.00015271181473508477,-0.0004581354442052543
1730998122474159000,2.4951591796875,-0.00030542362947016954,0.00038177953683771193,0.00007635590736754239
1730998122507492000,2.5284921875,0.000687203137204051,-0.00022906772210262716,-0.00015271181473508477
1730998122540825000,2.5618251953125,-0.00030542362947016954,-0.00022906772210262716,0.00007635590736754239
1730998122574158000,2.595157958984375,-0.00030542362947016954,-0.00022906772210262716,0.00007635590736754239
1730998122607491000,2.628490966796875,-0.00030542362947016954,0.00030542362947016954,-0.0004581354442052543
1730998122640824000,2.661823974609375,0.00030542362947016954,-0.000687203137204051,0.00007635590736754239
1730998122674157000,2.695156982421875,0.00030542362947016954,0.00007635590736754239,0.00007635590736754239
1730998122707490000,2.728489990234375,0.00022906772210262716,-0.00030542362947016954,0.00007635590736754239
1730998122740823000,2.761822998046875,-0.00030542362947016954,-0.00030542362947016954,0.00007635590736754239
1730998122774156300,2.79515625,0.00030542362947016954,-0.00030542362947016954,0.00007635590736754239
1730998122807489300,2.8284892578125,0,0.00007635590736754239,0.00007635590736754239
1730998122840822300,2.861822265625,0.00030542362947016954,-0.00022906772210262716,0.00007635590736754239
1730998122874155300,2.8951552734375,0.00030542362947016954,0.00038177953683771193,0.00007635590736754239
1730998122907488300,2.92848828125,0.00030542362947016954,-0.00007635590736754239,0.00007635590736754239
1730998122940821200,2.9618212890625,0.00030542362947016954,0.00007635590736754239,0.00038177953683771193
1730998122974154200,2.995154296875,-0.00030542362947016954,-0.00015271181473508477,0.00022906772210262716
1730998123007487200,3.0284873046875,-0.00030542362947016954,0.0004581354442052543,0.00007635590736754239
1730998123040820200,3.0618203125,0.00030542362947016954,0.00030542362947016954,0.00007635590736754239
1730998123074153500,3.095153564453125,-0.00007635590736754239,0.00015271181473508477,0.00007635590736754239
1730998123107486500,3.128486572265625,-0.00007635590736754239,0,0.00007635590736754239
1730998123140819500,3.1618193359375,-0.00038177953683771193,-0.0007635590736754239,0.00007635590736754239
1730998123174152400,3.19515234375,0.00022906772210262716,-0.00015271181473508477,0
1730998123207485400,3.2284853515625,-0.00007635590736754239,-0.0004581354442052543,0.00038177953683771193
1730998123240818400,3.261818359375,-0.00038177953683771193,-0.00015271181473508477,-0.00015271181473508477
1730998123274151400,3.2951513671875,-0.00038177953683771193,0.0004581354442052543,-0.0006108472589403391
1730998123307484400,3.328484375,0.00022906772210262716,0.00038177953683771193,-0.00015271181473508477
1730998123340817400,3.3618173828125,-0.00038177953683771193,-0.00015271181473508477,-0.0006108472589403391
1730998123374150700,3.395150634765625,0,-0.00015271181473508477,0
1730998123407483600,3.428483642578125,-0.00030542362947016954,0.00038177953683771193,-0.0006108472589403391
1730998123440816600,3.461816650390625,-0.00030542362947016954,-0.00015271181473508477,0
1730998123474149600,3.495149658203125,-0.00015271181473508477,0.00007635590736754239,0.00022906772210262716
1730998123507482600,3.528482666015625,-0.00015271181473508477,0.0004581354442052543,0.00038177953683771193
1730998123540815600,3.561815673828125,-0.00030542362947016954,0.00038177953683771193,0
1730998123574148600,3.595148681640625,0.00022906772210262716,-0.00015271181473508477,0
1730998123607481600,3.628481689453125,0.0005344913806766272,-0.00015271181473508477,0
1730998123640814600,3.661814697265625,-0.00007635590736754239,0.0004581354442052543,-0.0006108472589403391
1730998123674147800,3.69514794921875,0.0007635590736754239,0.00038177953683771193,-0.0004581354442052543
1730998123707480800,3.728480712890625,-0.00030542362947016954,0.00038177953683771193,0.00007635590736754239
1730998123740813800,3.761813720703125,0.00030542362947016954,0.00007635590736754239,0.00007635590736754239
1730998123774146800,3.795146728515625,-0.00015271181473508477,0.00007635590736754239,-0.00015271181473508477
1730998123807479800,3.828479736328125,0.0004581354442052543,0.00030542362947016954,-0.0004581354442052543
1730998123840812800,3.861812744140625,-0.00022906772210262716,-0.00015271181473508477,0.000687203137204051
1730998123874145800,3.895145751953125,0.0009162708884105086,-0.002672456670552492,0.0032069480512291193
1730998123907478800,3.928478759765625,0.0012216945178806782,-0.0029778804164379835,0.004352286923676729
1730998123940811800,3.961811767578125,-0.004581354558467865,-0.0015271181473508477,0.005344913341104984
1730998123974145000,3.99514501953125,-0.02008160389959812,-0.006719320081174374,0.00916270911693573
1730998124007478000,4.02847802734375,-0.0035887276753783226,-0.00038177953683771193,0.0038941511884331703
1730998124040811000,4.06181103515625,-0.005879404954612255,0.004046862944960594,0.003359660040587187
1730998124074144000,4.09514404296875,-0.015958385542035103,0.0004581354442052543,0.006184828467667103
1730998124107477000,4.12847705078125,-0.004123218823224306,-0.00022906772210262716,0.007330167107284069
1730998124140810000,4.16181005859375,-0.011606098152697086,0.0008399150101467967,-0.0017561858985573053
1730998124174143000,4.19514306640625,-0.002748812548816204,0.01847812905907631,0.012827792204916477
1730998124207476000,4.22847607421875,0.009620844386518002,-0.015194825828075409,0.0028251686599105597
1730998124240809000,4.26180908203125,0.029167955741286278,-0.005879404954612255,0.006032116711139679
1730998124274142200,4.29514208984375,0.05077667906880379,0.007177455350756645,0.005650337319821119
1730998124307475200,4.32847509765625,0.05344913527369499,0.014813045971095562,0.010918894782662392
1730998124340808200,4.36180810546875,0.05795413255691528,0.004199574701488018,0.006719320081174374
1730998124374141200,4.39514111328125,0.05993938818573952,0.01817270554602146,0.007253811229020357
1730998124407474200,4.42847412109375,0.0794101431965828,0.007406522985547781,-0.008017370477318764
1730998124440807200,4.46180712890625,0.08964183181524277,0.008093725889921188,0.0018325417768210173
1730998124474140200,4.49514013671875,0.0984991192817688,0.007482878863811493,0.006108472589403391
1730998124507473200,4.52847314453125,0.11315945535898209,-0.005421269219368696,-0.004734066314995289
1730998124540806400,4.561806396484375,0.11636640131473541,-0.004046862944960594,-0.0015271181473508477
1730998124574139400,4.595139404296875,0.12751436233520508,-0.0022906772792339325,-0.0007635590736754239
1730998124607472400,4.628472412109375,0.13095037639141083,-0.005344913341104984,0.011453386396169662
1730998124640805400,4.661805419921875,0.13843326270580292,-0.0014507622690871358,0.009315420873463154
1730998124674138400,4.695138427734375,0.15439164638519287,-0.030847785994410515,0.020616095513105392
1730998124707471400,4.728471435546875,0.14813046157360077,-0.015347537584602833,0.004657710436731577
1730998124740804400,4.761804443359375,0.15843850374221802,0.006184828467667103,0.0008399150101467967
1730998124774137300,4.795137451171875,0.15019206702709198,0.009849912486970425,0.006261184345930815
1730998124807470300,4.82847021484375,0.15179555118083954,0.007330167107284069,-0.01038440316915512
1730998124840803600,4.861803466796875,0.14606885612010956,0.005421269219368696,-0.0050394898280501366
1730998124874136600,4.895136474609375,0.13415732979774475,0.013744063675403595,-0.013667707331478596
1730998124907469600,4.928469482421875,0.13507360219955444,0.011453386396169662,-0.012751436792314053
1730998124940802600,4.961802490234375,0.12400199472904205,-0.011529741808772087,-0.011911521665751934
1730998124974135600,4.995135498046875,0.12064233422279358,-0.02680092304944992,-0.0022143214009702206
1730998125007468500,5.028468505859375,0.1104106456041336,-0.004504998680204153,-0.011071606539189816
1730998125040801500,5.061801513671875,0.11285403370857239,0.004199574701488018,-0.0050394898280501366
1730998125074134500,5.095134521484375,0.11002886295318604,0.027793550863862038,0.007941014133393764
1730998125107467500,5.128467529296875,0.1008661538362503,0.00038177953683771193,-0.004428642801940441
1730998125140800800,5.16180078125,0.09208522737026215,-0.02557922899723053,-0.010995250195264816
1730998125174133800,5.1951337890625,0.09979717433452606,-0.01175880990922451,-0.015805672854185104
1730998125207466800,5.228466796875,0.09513945877552032,0.027946261689066887,-0.03978142887353897
1730998125240799700,5.2617998046875,0.08651123940944672,0.026190076023340225,-0.028786176815629005
1730998125274132700,5.2951328125,0.08032641559839249,-0.009849912486970425,-0.013896775431931019
1730998125307465700,5.3284658203125,0.07299624383449554,-0.045889899134635925,-0.005726693198084831
1730998125340798700,5.361798828125,0.06994201242923737,-0.01847812905907631,-0.0029015245381742716
1730998125374131700,5.395131591796875,0.07207997888326645,-0.00786465872079134,-0.06673506647348404
1730998125407464700,5.428464599609375,0.08200624585151672,-0.03184041380882263,0.03336753323674202
1730998125440798000,5.4617978515625,0.08093725889921188,-0.02076880633831024,0.06795676052570343
1730998125474131000,5.495130859375,0.07528692483901978,0.008017370477318764,0.0006108472589403391
1730998125507464000,5.5284638671875,0.07062921673059464,0.010689826682209969,0.01916533336043358
1730998125540797000,5.561796875,0.06933116167783737,0.01969982497394085,0.011300674639642239
1730998125574130000,5.5951298828125,0.0716218426823616,0.0023670331574976444,0.025808297097682953
1730998125607463000,5.628462890625,0.07085828483104706,0.0038177953101694584,0.0198525357991457
1730998125640796000,5.6617958984375,0.0647498071193695,-0.008322793990373611,0.006948387715965509
1730998125674129000,5.69512890625,0.06200099736452103,-0.012904148548841476,0.017332790419459343
1730998125707462000,5.7284619140625,0.058335911482572556,-0.03497100621461868,0.05047125369310379
1730998125740795100,5.761795166015625,0.0492495596408844,-0.03268032893538475,0.007635590620338917
1730998125774128000,5.795128173828125,0.04321744292974472,0.02664821222424507,-0.02023431472480297
1730998125807461000,5.828461181640625,0.038483377546072006,0.0393996499478817,-0.018554486334323883
1730998125840794000,5.861794189453125,0.03588727489113808,0.030542362481355667,-0.036039989441633224
1730998125874127000,5.895127197265625,0.041919391602277756,-0.029626091942191124,-0.018554486334323883
1730998125907460000,5.928460205078125,0.041919391602277756,-0.04031591862440109,0.025884652510285378
1730998125940793000,5.96179296875,0.04947862774133682,-0.012598725035786629,0.00129805039614439
1730998125974126000,5.9951259765625,0.048333290964365005,-0.01748550310730934,-0.008246437646448612
1730998126007459000,6.028458984375,0.04550812020897865,-0.006261184345930815,0.0037414394319057465
1730998126040792300,6.061792236328125,0.04695888236165047,0.023059483617544174,-0.04581354558467865
1730998126074125300,6.095125244140625,0.044515494257211685,0.04695888236165047,-0.03749075159430504
1730998126107458300,6.128458251953125,0.04092676565051079,0.015423892997205257,-0.02473931387066841
1730998126140791300,6.161791259765625,0.03955236077308655,-0.02038702741265297,-0.01969982497394085
1730998126174124300,6.195124267578125,0.04512634128332138,-0.03023693896830082,0.048638712614774704
1730998126207457300,6.228457275390625,0.042759306728839874,-0.0009162708884105086,0.03924693539738655
1730998126240790300,6.261790283203125,0.04146125912666321,0.0032069480512291193,0.012751436792314053
1730998126274123300,6.295123291015625,0.04337015375494957,-0.006184828467667103,0.02504473738372326
1730998126307456300,6.328456298828125,0.03871244564652443,0.012598725035786629,0.017867282032966614
1730998126340789500,6.36178955078125,0.04253023862838745,0.020005248486995697,0.0012216945178806782
1730998126374122500,6.39512255859375,0.04375193640589714,0.009773556143045425,0.005955760832875967
1730998126407455500,6.42845556640625,0.044515494257211685,-0.0051158457063138485,0.028633465990424156
1730998126440788500,6.46178857421875,0.050929389894008636,-0.005726693198084831,0.07391251623630524
1730998126474121500,6.49512158203125,0.04062134400010109,-0.0067956759594380856,0.03458922728896141
1730998126507454500,6.528454345703125,0.04459185153245926,-0.011453386396169662,0.044820915907621384
1730998126540787500,6.561787353515625,0.042759306728839874,-0.014736690558493137,0.043446511030197144
1730998126574120400,6.595120361328125,0.032603971660137177,0.0008399150101467967,0.030542362481355667
1730998126607453400,6.628453369140625,0.031382277607917786,0.011835165321826935,0.028098974376916885
1730998126640786700,6.66178662109375,0.02214321307837963,0.005573981441557407,0.030389651656150818
1730998126674119700,6.69511962890625,0.012598725035786629,-0.02176143415272236,0.0361163429915905
1730998126707452700,6.72845263671875,0.008704573847353458,-0.014202198944985867,0.05986303091049194
1730998126740785700,6.76178564453125,-0.0067956759594380856,0.00030542362947016954,0.049860406666994095
1730998126774118700,6.79511865234375,-0.0164165198802948,0.00259610079228878,0.02405211143195629
1730998126807451600,6.82845166015625,-0.03687990456819534,0.009009997360408306,0.01748550310730934
1730998126840784600,6.86178466796875,-0.0594048947095871,0.020463382825255394,0.01572931744158268
1730998126874117600,6.89511767578125,-0.07979192584753036,0.03733803704380989,0.006413896102458239
1730998126907451000,6.928450927734375,-0.12010784447193146,0.011529741808772087,0.02351761981844902
1730998126940783900,6.961783935546875,-0.18768282234668732,-0.018936265259981155,0.03352024406194687
1730998126974116900,6.995116943359375,-0.26281702518463135,-0.033596597611904144,-0.05459447205066681
1730998127007449900,7.028449951171875,-0.28014981746673584,0.026342788711190224,0.026495499536395073
1730998127040782800,7.061782958984375,-0.30191126465797424,0.016492875292897224,0.023823043331503868
1730998127074115800,7.09511572265625,-0.3229091465473175,-0.013362283818423748,0.023212196305394173
1730998127107448800,7.12844873046875,-0.341081827878952,-0.011300674639642239,0.020692450925707817
1730998127140781800,7.16178173828125,-0.34153997898101807,-0.021990500390529633,0.022906772792339325
1730998127174114800,7.19511474609375,-0.3334462344646454,-0.02435753494501114,-0.005879404954612255
1730998127207448000,7.228447998046875,-0.3047364354133606,-0.009239064529538155,0.049707695841789246
1730998127240781000,7.261781005859375,-0.2976353168487549,0.019241688773036003,0.029167955741286278
1730998127274114000,7.295114013671875,-0.28641101717948914,-0.0034360159188508987,-0.0051158457063138485
1730998127307447000,7.328447021484375,-0.30336201190948486,-0.01572931744158268,-0.040392275899648666
1730998127340780000,7.361780029296875,-0.3339807391166687,-0.02405211143195629,-0.043446511030197144
1730998127374113000,7.395113037109375,-0.36223241686820984,-0.02298312820494175,-0.04619532451033592
1730998127407446000,7.428446044921875,-0.39109495282173157,-0.015805672854185104,-0.07269082218408585
1730998127440779000,7.461779052734375,-0.40964943170547485,-0.009849912486970425,-0.07070557028055191
1730998127474112000,7.495112060546875,-0.4091149568557739,0.044362783432006836,-0.08994726091623306
1730998127507445200,7.5284453125,-0.4073587656021118,0.031076854094862938,-0.10453123599290848
1730998127540778200,7.5617783203125,-0.40483900904655457,0.00007635590736754239,-0.0784938707947731
1730998127574111200,7.595111328125,-0.41041299700737,0.0007635590736754239,-0.09002361446619034
1730998127607444200,7.6284443359375,-0.3939201235771179,0.009009997360408306,-0.028938889503479004
1730998127640777200,7.661777099609375,-0.35948359966278076,0.0065666078589856625,0.012904148548841476
1730998127674110200,7.695110107421875,-0.33856210112571716,0.04871506989002228,-0.038101598620414734
1730998127707443200,7.728443115234375,-0.3215347230434418,0.016187451779842377,0.004428642801940441
1730998127740776200,7.761776123046875,-0.3068743944168091,-0.013744063675403595,0.03817795217037201
1730998127774109200,7.795109130859375,-0.28549474477767944,-0.040392275899648666,0.0423775278031826
1730998127807442400,7.8284423828125,-0.2527380585670471,-0.06337540596723557,0.1220930963754654
1730998127840775400,7.861775390625,-0.20913882553577423,0.0010689827613532543,0.05948125198483467
1730998127874108400,7.8951083984375,-0.18035265803337097,0.06795676052570343,0.03298575058579445
1730998127907441400,7.92844140625,-0.16500511765480042,0.04085041210055351,0.016721943393349648
1730998127940774400,7.9617744140625,-0.1546207070350647,-0.005497625097632408,0.013362283818423748
1730998127974107400,7.995107421875,-0.1346154659986496,-0.02473931387066841,0.007101099472492933
1730998128007440400,8.0284404296875,-0.11315945535898209,-0.0022906772792339325,0.01847812905907631
1730998128040773400,8.0617734375,-0.09567394852638245,0.03962871432304382,0.01710372418165207
1730998128074106400,8.0951064453125,-0.0984991192817688,0.058717694133520126,-0.04359922185540199
1730998128107439600,8.128439697265625,-0.10132429003715515,0.04107947647571564,-0.04421006888151169
1730998128140772600,8.161772705078125,-0.0984991192817688,0.012446013279259205,-0.03978142887353897
1730998128174105600,8.195105712890625,-0.09483403712511063,-0.01046075951308012,-0.04283566400408745
1730998128207438600,8.2284384765625,-0.1056765764951706,-0.04879142343997955,-0.09239064902067184
1730998128240771600,8.261771484375,-0.09391776472330093,-0.038101598620414734,-0.06810946762561798
1730998128274104600,8.2951044921875,-0.08933641016483307,0.05810684710741043,-0.10124793648719788
1730998128307437600,8.3284375,-0.09895725548267365,-0.005573981441557407,-0.05993938818573952
1730998128340770600,8.3617705078125,-0.11858072131872177,-0.031153209507465363,-0.045202698558568954
1730998128374103600,8.395103515625,-0.12453648447990417,-0.053983625024557114,0.03817795217037201
1730998128407436800,8.428436767578125,-0.13858596980571747,-0.050013117492198944,0.019470756873488426
1730998128440769800,8.461769775390625,-0.1471378356218338,0.04092676565051079,-0.01725643500685692
1730998128474102800,8.495102783203125,-0.14912308752536774,0.043141089379787445,0.0038941511884331703
1730998128507435800,8.528435791015625,-0.1378987729549408,-0.009544488042593002,0.03420744836330414
1730998128540768800,8.561768798828124,-0.14072394371032715,-0.044820915907621384,0.045737188309431076
1730998128574101800,8.595101806640624,-0.1423274129629135,0.008017370477318764,0.04352286830544472
1730998128607434800,8.628434814453126,-0.15439164638519287,-0.006642963737249374,0.02733541466295719
1730998128640767700,8.661767822265626,-0.19821994006633759,0.007330167107284069,0.01252236869186163
1730998128674100700,8.695100830078125,-0.2226538211107254,0.005268557462841272,0.021379653364419937
1730998128707434000,8.72843408203125,-0.22937314212322235,-0.02038702741265297,0.02710634656250477
1730998128740767000,8.76176708984375,-0.2489202618598938,-0.054899897426366806,0.00007635590736754239
1730998128774100000,8.795099853515625,-0.2471640706062317,-0.05199837312102318,0.03474193811416626
1730998128807433000,8.828432861328125,-0.2408265322446823,0.04428642615675926,-0.021226942539215088
1730998128840766000,8.861765869140624,-0.2137201875448227,0.01794363744556904,-0.008170082233846188
1730998128874099000,8.895098876953124,-0.1835595965385437,0.02023431472480297,0.033596597611904144
1730998128907432000,8.928431884765626,-0.1495048701763153,-0.005497625097632408,0.06665870547294617
1730998128940765000,8.961764892578126,-0.1424037665128708,-0.04703523963689804,-0.0035887276753783226
1730998128974098000,8.995097900390626,-0.12789614498615265,-0.006032116711139679,0.019470756873488426
1730998129007431200,9.02843115234375,-0.11147962510585785,0.025350160896778107,-0.005421269219368696
1730998129040764200,9.06176416015625,-0.09987352788448334,-0.008017370477318764,0.006184828467667103
1730998129074097200,9.09509716796875,-0.09720107167959213,-0.017180079594254494,-0.02244863659143448
1730998129107430100,9.12843017578125,-0.08666395395994186,-0.034818295389413834,-0.015805672854185104
1730998129140763100,9.16176318359375,-0.0814717561006546,0.03245126083493233,-0.029855160042643547
1730998129174096100,9.19509619140625,-0.061619218438863754,0.03527642786502838,-0.07566870748996735
1730998129207429000,9.22842919921875,-0.022066857665777206,0.043981000781059265,-0.06734590977430344
1730998129240762000,9.26176220703125,0.036192700266838074,-0.010689826682209969,-0.023441264405846596
1730998129274095000,9.29509521484375,0.09827005118131638,-0.021226942539215088,-0.016645587980747223
1730998129307428400,9.328428466796876,0.14996300637722015,0.004963133949786425,0.033291175961494446
1730998129340761300,9.36176123046875,0.18707197904586792,0.02970244735479355,-0.008017370477318764
1730998129374094300,9.39509423828125,0.2373141646385193,0.00908635277301073,-0.014660334214568138
1730998129407427300,9.42842724609375,0.3000023663043976,0.033291175961494446,0.00007635590736754239
1730998129440760300,9.46176025390625,0.36101073026657104,0.01382041908800602,-0.0009162708884105086
1730998129474093300,9.49509326171875,0.4178958833217621,0.025731941685080528,0.022754060104489326
1730998129507426300,9.52842626953125,0.448361873626709,0.012980503961443901,-0.007482878863811493
1730998129540759300,9.56175927734375,0.47859883308410645,0.03145863488316536,-0.020157959312200546
1730998129574092500,9.595092529296876,0.4990622103214264,0.04909684881567955,0.05238015204668045
1730998129607425500,9.628425537109376,0.5180748105049133,0.029855160042643547,0.02038702741265297
1730998129640758500,9.661758544921875,0.5245651006698608,0.00015271181473508477,0.025502873584628105
1730998129674091500,9.695091552734375,0.5309789776802063,-0.027029991149902344,0.02435753494501114
1730998129707424500,9.728424560546875,0.5425087213516235,-0.0261137206107378,0.03321481868624687
1730998129740757500,9.761757568359375,0.5408288836479187,-0.009315420873463154,0.030847785994410515
1730998129774090500,9.795090576171875,0.5467082858085632,-0.002672456670552492,0.09590301662683487
1730998129807423500,9.828423583984375,0.552664041519165,-0.013514995574951172,-0.01725643500685692
1730998129840756500,9.861756591796874,0.5874823331832886,0.0005344913806766272,0.03061871975660324
1730998129874089700,9.89508984375,0.6302416324615479,0.0010689827613532543,0.008551862090826035
1730998129907422700,9.928422607421876,0.640626072883606,0.004581354558467865,0.00030542362947016954
1730998129940755700,9.961755615234376,0.6080220937728882,-0.020997874438762665,-0.012140588834881783
1730998129974088700,9.995088623046875,0.5431195497512817,-0.004199574701488018,0.019241688773036003
1730998130007421700,10.028421630859375,0.5088357925415039,-0.0016034740256145597,0.0038177953101694584
1730998130040754700,10.061754638671875,0.47714805603027344,-0.009849912486970425,0.011453386396169662
1730998130074087700,10.095087646484375,0.4310291111469269,-0.012446013279259205,0.002748812548816204
1730998130107420700,10.128420654296875,0.37299859523773193,0.004810422193259001,-0.009009997360408306
1730998130140753700,10.161753662109374,0.3294757306575775,0.03092414326965809,-0.03130592033267021
1730998130174087000,10.1950869140625,0.2786990702152252,0.0012216945178806782,-0.006948387715965509
1730998130207416600,10.22841650390625,0.24930204451084137,0.0065666078589856625,-0.0005344913806766272
1730998130240749600,10.26174951171875,0.25449424982070923,-0.0725381150841713,-0.03779617324471474
1730998130274082600,10.29508251953125,0.32130566239356995,-0.043981000781059265,-0.0261137206107378
1730998130307415600,10.32841552734375,0.4101075828075409,0.0036650835536420345,-0.041384901851415634
1730998130340748800,10.361748779296875,0.4658474028110504,0.021150587126612663,-0.031916771084070206
1730998130374081800,10.395081787109374,0.4813476502895355,0.01817270554602146,-0.05688514932990074
1730998130407414800,10.428414794921874,0.4852418005466461,0.04703523963689804,-0.00038177953683771193
1730998130440747800,10.461747802734376,0.5078431367874146,0.03588727489113808,-0.03374931216239929
1730998130474080800,10.495080810546876,0.4980695843696594,-0.020157959312200546,-0.04077405482530594
1730998130507413800,10.528413818359375,0.48730340600013733,-0.0390942245721817,-0.04718795046210289
1730998130540746800,10.561746826171875,0.46638187766075134,-0.072843536734581,-0.07528692483901978
1730998130574079700,10.595079833984375,0.4404972195625305,-0.05948125198483467,-0.04253023862838745
1730998130607413000,10.6284130859375,0.4022429287433624,0.016034740954637527,-0.08269345015287399
1730998130640746000,10.66174609375,0.31977853178977966,-0.015652960166335106,-0.04359922185540199
1730998130674079000,10.695078857421874,0.24601873755455017,0.04405735805630684,-0.06085565686225891
1730998130707412000,10.728411865234374,0.18218518793582916,0.05856497958302498,-0.06452073901891708
1730998130740745000,10.761744873046876,0.12606360018253326,0.010537114925682545,0.017714571207761765
1730998130774078000,10.795077880859376,0.05405998229980469,-0.021379653364419937,0.012216945178806782
1730998130807411000,10.828410888671876,0.007406522985547781,-0.026342788711190224,0.03229855000972748
1730998130840744000,10.861743896484375,-0.03565821051597595,-0.03405473381280899,0.04107947647571564
1730998130874077000,10.895076904296875,-0.059023115783929825,-0.007101099472492933,0.03649812191724777
1730998130907410200,10.92841015625,-0.0745997205376625,0.0029778804164379835,0.07963921129703522
1730998130940743200,10.9617431640625,-0.09575030952692032,-0.013591351918876171,0.091321662068367
1730998130974076200,10.995076171875,-0.1510319858789444,0.0011453386396169662,0.04474456235766411
1730998131007409200,11.0284091796875,-0.19860170781612396,0.02817532978951931,0.04146125912666321
1730998131040742100,11.0617421875,-0.25021830201148987,0.02886253222823143,0.05856497958302498
1730998131074075100,11.0950751953125,-0.30015507340431213,0.022601349279284477,-0.018554486334323883
1730998131107408100,11.128408203125,-0.3426089584827423,0.09139802306890488,-0.021990500390529633
1730998131140741000,11.1617412109375,-0.43835926055908203,0.05993938818573952,0.004886778071522713
1730998131174074000,11.19507421875,-0.5135698318481445,0.07177454978227615,-0.02680092304944992
1730998131207407400,11.228407470703125,-0.5621321797370911,0.035200074315071106,0.032222192734479904
1730998131240740400,11.261740234375,-0.6121453046798706,0.03374931216239929,0.004123218823224306
1730998131274073300,11.2950732421875,-0.6318451166152954,0.00129805039614439,0.027259059250354767
1730998131307406300,11.32840625,-0.6549046039581299,-0.041919391602277756,0.0050394898280501366
1730998131340739300,11.3617392578125,-0.6502469182014465,-0.06681142002344131,0.04756972938776016
1730998131374072300,11.395072265625,-0.6175665855407715,-0.01794363744556904,0.07742489129304886
1730998131407405300,11.4284052734375,-0.5548783540725708,-0.02748812735080719,0.021150587126612663
1730998131440738300,11.46173828125,-0.48967042565345764,0.006337540224194527,-0.02870982140302658
1730998131474071300,11.4950712890625,-0.41774317622184753,0.012216945178806782,-0.010155336000025272
1730998131507404500,11.528404541015625,-0.37315133213996887,-0.005879404954612255,-0.01763821393251419
1730998131540737500,11.561737548828125,-0.34902286529541016,-0.07307260483503342,-0.03527642786502838
1730998131574070500,11.595070556640625,-0.3259633779525757,-0.016798298805952072,-0.09452861547470093
1730998131607403500,11.628403564453125,-0.31237202882766724,-0.005955760832875967,-0.07925742864608765
1730998131640736500,11.661736572265625,-0.30931776762008667,-0.049554985016584396,-0.04772244393825531
1730998131674069500,11.695069580078124,-0.31313556432724,-0.025502873584628105,-0.04871506989002228
1730998131707402500,11.728402587890624,-0.2919086217880249,0.07360709458589554,-0.03184041380882263
1730998131740735500,11.761735595703126,-0.2725142240524292,0.08765657991170883,-0.052609220147132874
1730998131774068500,11.795068359375,-0.2739650011062622,0.02214321307837963,-0.017561858519911766
1730998131807401700,11.828401611328125,-0.2969481348991394,-0.049554985016584396,-0.016492875292897224
1730998131840734700,11.861734619140625,-0.28641101717948914,-0.03565821051597595,0.0590994730591774
1730998131874067700,11.895067626953125,-0.25647950172424316,-0.02504473738372326,0.018936265259981155
1730998131907400700,11.928400634765625,-0.23021306097507477,0.03290939703583717,-0.011911521665751934
1730998131940733700,11.961733642578125,-0.2101314514875412,0.00007635590736754239,0.043141089379787445
1730998131974066700,11.995066650390624,-0.1979145109653473,-0.026571854948997498,0.04169032722711563
1730998132007399700,12.028399658203124,-0.18737739324569702,0.0034360159188508987,0.03588727489113808
1730998132040732700,12.061732666015626,-0.16485241055488586,0.024281177669763565,0.019241688773036003
1730998132074065700,12.095065673828126,-0.1557660549879074,0.011300674639642239,0.005650337319821119
1730998132107399000,12.12839892578125,-0.1402658075094223,-0.01885990984737873,0.03176405653357506
1730998132140732000,12.16173193359375,-0.13476817309856415,-0.04352286830544472,0.017714571207761765
1730998132174065000,12.19506494140625,-0.10987614840269089,-0.0034360159188508987,0.004275931045413017
1730998132207398000,12.22839794921875,-0.10002623498439789,-0.008780929259955883,-0.048333290964365005
1730998132240731000,12.26173095703125,-0.07101099193096161,-0.014049487188458443,-0.0587940476834774
1730998132274064000,12.29506396484375,-0.04543176665902138,-0.013744063675403595,-0.033596597611904144
1730998132307396900,12.32839697265625,-0.02076880633831024,-0.009773556143045425,-0.08551861345767975
1730998132340729900,12.361729736328124,-0.011300674639642239,-0.043828289955854416,-0.08811471611261368
1730998132374062800,12.395062744140626,-0.0065666078589856625,-0.007482878863811493,-0.03512371703982353
1730998132407396000,12.42839599609375,-0.0021379655227065086,0.0035123717971146107,-0.00992626789957285
1730998132440729000,12.46172900390625,0.005344913341104984,0.014202198944985867,0.018936265259981155
1730998132474062000,12.49506201171875,0.011147962883114815,0.0198525357991457,0.00916270911693573
1730998132507395000,12.52839501953125,0.013285927474498749,0.051769305020570755,-0.006032116711139679
1730998132540728000,12.56172802734375,0.013209572061896324,0.021226942539215088,0.01832541823387146
1730998132574061000,12.59506103515625,0.012216945178806782,-0.001374406274408102,0.06620056927204132
1730998132607394000,12.62839404296875,0.01572931744158268,0.0050394898280501366,0.049860406666994095
1730998132640727000,12.66172705078125,0.007101099472492933,0.036039989441633224,-0.03993413969874382
1730998132674060000,12.69506005859375,0.005268557462841272,0.023975754156708717,0.0032833039294928312
1730998132707393300,12.728393310546876,0.0034360159188508987,0.031916771084070206,-0.014965757727622986
1730998132740726300,12.761726318359376,0.006642963737249374,0.031916771084070206,0.007941014133393764
1730998132774059300,12.795059326171875,-0.00030542362947016954,0.02214321307837963,-0.04650074616074562
1730998132807392300,12.828392333984375,-0.010995250195264816,-0.02764083817601204,-0.02557922899723053
1730998132840725200,12.861725341796875,-0.005879404954612255,-0.019088976085186005,-0.06780404597520828
1730998132874058200,12.895058349609375,-0.003359660040587187,-0.04688252881169319,-0.08383878320455551
1730998132907391200,12.92839111328125,0.006184828467667103,-0.03718532621860504,-0.0016798300202935934
1730998132940724200,12.96172412109375,0.00862821750342846,0.04321744292974472,-0.006948387715965509
1730998132974057500,12.995057373046874,0.02764083817601204,0.05703786388039589,0.09613208472728729
1730998133007390500,13.028390380859374,0.03237490355968475,0.06123743951320648,0.04046862944960594
1730998133040723500,13.061723388671876,0.031916771084070206,0.037567105144262314,0.18707197904586792
1730998133074056400,13.095056396484376,0.031382277607917786,-0.00519220158457756,0.11186140775680542
1730998133107389400,13.128389404296875,0.02924431301653385,-0.09941539168357849,0.18638476729393005
1730998133140722400,13.161722412109375,0.017332790419459343,-0.06070294603705406,0.09048175066709518
1730998133174055400,13.195055419921875,0.0050394898280501366,-0.01779092662036419,-0.01748550310730934
1730998133207388400,13.228388427734375,0.002672456670552492,0.1396549493074417,-0.006719320081174374
1730998133240721400,13.261721435546875,-0.004352286923676729,0.02886253222823143,-0.002061609411612153
1730998133274054700,13.2950546875,-0.021990500390529633,-0.09315420687198639,-0.03687990456819534
1730998133307387600,13.3283876953125,-0.012216945178806782,-0.06253548711538315,-0.0420721061527729
1730998133340720600,13.361720703125,-0.0008399150101467967,-0.04085041210055351,0.04634803533554077
1730998133374053600,13.3950537109375,0.008857285603880882,-0.016111096367239952,-0.0009162708884105086
1730998133407386600,13.42838671875,0.00992626789957285,0.0361163429915905,-0.0130568603053689
1730998133440719600,13.4617197265625,0.016187451779842377,0.05497625470161438,0.004963133949786425
1730998133474052600,13.495052490234375,0.017867282032966614,0.05825955793261528,-0.024433890357613564
1730998133507385600,13.528385498046875,0.01763821393251419,0.04871506989002228,0.02008160389959812
1730998133540718600,13.561718505859375,0.022906772792339325,-0.015042114071547985,0.029855160042643547
1730998133574051800,13.5950517578125,0.023059483617544174,-0.036192700266838074,0.045355409383773804
1730998133607384800,13.628384765625,0.013133215717971325,-0.013285927474498749,-0.004504998680204153
1730998133640717800,13.6617177734375,-0.01038440316915512,-0.006642963737249374,0.010002624243497849
1730998133674050800,13.69505078125,0.0064902519807219505,-0.0050394898280501366,0.01175880990922451
1730998133707383800,13.7283837890625,0.02145601063966751,-0.006719320081174374,0.0019088976550847292
1730998133740716800,13.761716796875,0.02107422985136509,0.004199574701488018,0.0030542362947016954
1730998133774049800,13.7950498046875,-0.0008399150101467967,0.007941014133393764,-0.0029015245381742716
1730998133807382800,13.8283828125,0.01382041908800602,-0.0008399150101467967,-0.0028251686599105597
1730998133840715800,13.8617158203125,0.017027366906404495,-0.0022143214009702206,-0.004734066314995289
1730998133874049000,13.895049072265625,-0.007253811229020357,-0.006719320081174374,0.0016034740256145597
1730998133907382000,13.928382080078125,0.000687203137204051,-0.020616095513105392,0.010155336000025272
1730998133940715000,13.961715087890624,-0.007482878863811493,-0.012293301522731781,0.008551862090826035
1730998133974048000,13.995048095703124,0.0023670331574976444,-0.013973130844533443,0.01122431829571724
1730998134007381000,14.028381103515626,0.004963133949786425,-0.016111096367239952,0.012827792204916477
1730998134040714000,14.0617138671875,-0.0011453386396169662,-0.003970507066696882,0.008246437646448612
1730998134074047000,14.095046875,0.001985253533348441,-0.0019088976550847292,0.0051158457063138485
1730998134107380000,14.1283798828125,-0.005955760832875967,-0.004428642801940441,0.004123218823224306
1730998134140713000,14.161712890625,-0.0067956759594380856,-0.0022143214009702206,0.001374406274408102
1730998134174046200,14.195046142578125,0.000687203137204051,0.0010689827613532543,-0.0007635590736754239
1730998134207379200,14.228379150390625,0.004657710436731577,-0.00129805039614439,0.0006108472589403391
1730998134240712200,14.261712158203125,0.005955760832875967,0.00007635590736754239,0
1730998134274045200,14.295045166015624,-0.0065666078589856625,0.0010689827613532543,0
1730998134307378200,14.328378173828124,-0.0029778804164379835,0.00022906772210262716,-0.00038177953683771193
1730998134340711200,14.361711181640626,0.004352286923676729,0.0016798300202935934,-0.0009162708884105086
1730998134374044200,14.395044189453126,-0.0035123717971146107,0.0010689827613532543,-0.0006108472589403391
1730998134407377200,14.428377197265625,0.0007635590736754239,0.0004581354442052543,-0.0012216945178806782
1730998134440710100,14.461710205078125,0.0011453386396169662,0.0010689827613532543,-0.0006108472589403391
1730998134474043400,14.49504345703125,-0.00129805039614439,0.0004581354442052543,-0.00030542362947016954
1730998134507376400,14.52837646484375,0.0015271181473508477,0.0004581354442052543,-0.0004581354442052543
1730998134540709400,14.56170947265625,-0.00030542362947016954,0.0010689827613532543,0
1730998134574042400,14.59504248046875,0.0006108472589403391,0.0004581354442052543,0.00015271181473508477
1730998134607375400,14.628375244140624,0.011987877078354359,-0.0017561858985573053,0.0012216945178806782
1730998134640708400,14.661708251953126,0.02176143415272236,-0.0032069480512291193,0.0015271181473508477
1730998134674041300,14.695041259765626,0.04504998400807381,0.002061609411612153,-0.0005344913806766272
1730998134707374300,14.728374267578126,0.08735115826129913,-0.01046075951308012,-0.000687203137204051
1730998134740707300,14.761707275390625,0.10361496359109879,-0.0068720318377017975,0.005344913341104984
1730998134774040600,14.79504052734375,0.15362808108329773,-0.006184828467667103,0.000687203137204051
1730998134807373600,14.82837353515625,0.24136102199554443,0.007406522985547781,-0.003359660040587187
1730998134840706600,14.86170654296875,0.39078953862190247,-0.006719320081174374,0.0007635590736754239
1730998134874039600,14.89503955078125,0.6079457402229309,-0.010766183026134968,-0.002061609411612153
1730998134907372500,14.92837255859375,0.7928797602653503,-0.012369656935334206,-0.0051158457063138485
1730998134940705500,14.96170556640625,0.9164236187934875,-0.014049487188458443,-0.0031305921729654074
1730998134974038500,14.99503857421875,0.9960628151893616,-0.013362283818423748,-0.0022143214009702206
1730998135007371500,15.02837158203125,1.0098832845687866,-0.004963133949786425,-0.007711946498602629
1730998135040704500,15.06170458984375,0.9733087420463562,-0.010002624243497849,-0.005955760832875967
1730998135074037800,15.095037841796875,0.9356653094291687,-0.005268557462841272,-0.0068720318377017975
1730998135107370800,15.128370849609375,0.8880192041397095,0.0011453386396169662,-0.008475505746901035
1730998135140703700,15.161703857421875,0.8222004175186157,0.00007635590736754239,-0.006719320081174374
1730998135174036700,15.19503662109375,0.7739434838294983,-0.003359660040587187,-0.0028251686599105597
1730998135207369700,15.22836962890625,0.7498149871826172,0.006032116711139679,-0.002748812548816204
1730998135240702700,15.26170263671875,0.7266791462898254,-0.0015271181473508477,-0.0012216945178806782
1730998135274035700,15.29503564453125,0.6921663284301758,-0.004199574701488018,-0.007101099472492933
1730998135307368700,15.32836865234375,0.6360446810722351,-0.006719320081174374,-0.007559234742075205
1730998135340702000,15.361701904296876,0.5913764834403992,-0.007177455350756645,-0.004963133949786425
1730998135374035000,15.395034912109375,0.5720584392547607,-0.003970507066696882,-0.005268557462841272
1730998135407368000,15.428367919921875,0.564728319644928,-0.009544488042593002,-0.0015271181473508477
1730998135440701000,15.461700927734375,0.548922598361969,-0.006948387715965509,-0.003359660040587187
1730998135474034000,15.495033935546875,0.5206709504127502,0.007406522985547781,-0.006261184345930815
1730998135507367000,15.528366943359375,0.4560738205909729,0.007711946498602629,-0.012140588834881783
1730998135540700000,15.561699951171875,0.32695600390434265,0.008170082233846188,-0.006337540224194527
1730998135574033000,15.595032958984374,0.18432316184043884,0.00259610079228878,-0.002748812548816204
1730998135607366000,15.628365966796874,0.049860406666994095,-0.005421269219368696,0.0022906772792339325
1730998135640699100,15.66169921875,-0.01954711228609085,-0.005650337319821119,0.0036650835536420345
1730998135674032000,15.6950322265625,-0.0014507622690871358,-0.002748812548816204,0.0024433890357613564
1730998135707365000,15.728365234375,0.015576604753732681,-0.0068720318377017975,0.0030542362947016954
1730998135740698000,15.761697998046875,0.01969982497394085,-0.003970507066696882,0.0012216945178806782
1730998135774031000,15.795031005859375,0.025961007922887802,-0.0008399150101467967,0
1730998135807364000,15.828364013671875,0.025731941685080528,-0.0019088976550847292,0
1730998135840697000,15.861697021484375,0.018401773646473885,-0.001374406274408102,0
1730998135874030000,15.895030029296874,0.004352286923676729,-0.00038177953683771193,-0.00038177953683771193
1730998135907363000,15.928363037109374,0.00030542362947016954,0.0010689827613532543,-0.0006108472589403391
1730998135940696300,15.9616962890625,0.00038177953683771193,0.0016798300202935934,-0.0012216945178806782
1730998135974029300,15.995029296875,0,0.00129805039614439,-0.0008399150101467967
1730998136007362300,16.0283623046875,0.0016798300202935934,0.0018325417768210173,-0.0006108472589403391
1730998136040695300,16.0616953125,-0.0009926267666742206,0.0016798300202935934,-0.0006108472589403391
1730998136074028300,16.0950283203125,-0.016111096367239952,0.0021379655227065086,-0.0010689827613532543
1730998136107361300,16.128361328125,-0.027182703837752342,0.004046862944960594,-0.00007635590736754239
1730998136140694300,16.1616943359375,-0.04459185153245926,-0.0021379655227065086,-0.0014507622690871358
1730998136174027300,16.19502734375,-0.04818057641386986,0.006413896102458239,0.002748812548816204
1730998136207360300,16.2283603515625,-0.028938889503479004,0.004123218823224306,-0.0015271181473508477
1730998136240693500,16.261693603515624,-0.0295497365295887,-0.00030542362947016954,-0.0007635590736754239
1730998136274026500,16.295026611328126,-0.049554985016584396,0.0029778804164379835,-0.0006108472589403391
1730998136307359500,16.328359375,-0.08299887180328369,0.009391776286065578,-0.0010689827613532543
1730998136340692500,16.3616923828125,-0.08124268800020218,0.0005344913806766272,-0.0005344913806766272
1730998136374025500,16.395025390625,-0.0692548081278801,-0.025197450071573257,0.009773556143045425
1730998136407358500,16.4283583984375,-0.1274380087852478,-0.0006108472589403391,0.0029015245381742716
1730998136440691500,16.46169140625,-0.22578442096710205,0.004657710436731577,0.004734066314995289
1730998136474024400,16.4950244140625,-0.3802524209022522,0.0021379655227065086,0.005344913341104984
1730998136507357400,16.528357421875,-0.5605286955833435,-0.00015271181473508477,0.007101099472492933
1730998136540690700,16.561690673828124,-0.7641699314117432,0.005879404954612255,-0.004275931045413017
1730998136574023700,16.595023681640626,-0.9594883322715759,0.012598725035786629,-0.0028251686599105597
1730998136607356700,16.628356689453124,-1.0931875705718994,0.030695075169205666,0.004504998680204153
1730998136640689700,16.661689697265626,-1.2461284399032593,0.005726693198084831,0.010613471269607544
1730998136674022700,16.695022705078124,-1.4052541255950928,-0.02802261710166931,0.023975754156708717
1730998136707355600,16.728355712890625,-1.4267865419387817,0.0064902519807219505,0.007177455350756645
1730998136740688600,16.761688720703123,-1.3741772174835205,0.012140588834881783,0.0065666078589856625
1730998136774021600,16.795021728515625,-1.3414205312728882,0.02626643143594265,-0.004275931045413017
1730998136807354600,16.828354736328127,-1.2624685764312744,0.022677704691886902,-0.0015271181473508477
1730998136840687900,16.86168798828125,-1.1836693286895752,0.023212196305394173,-0.0021379655227065086
1730998136874020900,16.895020751953126,-1.0856282711029053,0.01511846948415041,-0.004886778071522713
1730998136907353900,16.928353759765624,-1.01942777633667,0.019394399598240852,-0.0036650835536420345
1730998136940686800,16.961686767578126,-0.9562813639640808,0.018630841746926308,-0.0018325417768210173
1730998136974019800,16.995019775390624,-0.9070318341255188,0.017867282032966614,-0.007177455350756645
1730998137007352800,17.028352783203125,-0.8598438501358032,0.009544488042593002,-0.0023670331574976444
1730998137040685800,17.061685791015623,-0.8436564207077026,0.0006108472589403391,0.004963133949786425
1730998137074018800,17.095018798828125,-0.8315158486366272,0.008704573847353458,0.0021379655227065086
1730998137107351800,17.128351806640627,-0.7934142351150513,0.0032069480512291193,0.0025197449140250683
1730998137140685000,17.16168505859375,-0.7111025452613831,-0.005955760832875967,0.004504998680204153
1730998137174018000,17.19501806640625,-0.4689016342163086,0.012216945178806782,-0.0028251686599105597
1730998137207351000,17.22835107421875,-0.2334200143814087,-0.00030542362947016954,-0.00022906772210262716
1730998137240684000,17.26168408203125,-0.018707197159528732,0.004734066314995289,-0.0016034740256145597
1730998137274017000,17.29501708984375,0.052456509321928024,-0.005650337319821119,0.004428642801940441
1730998137307350000,17.32835009765625,-0.0024433890357613564,0.0032069480512291193,0.001374406274408102
1730998137340683000,17.36168310546875,-0.028786176815629005,-0.0007635590736754239,0.0019088976550847292
1730998137374016000,17.39501611328125,-0.0005344913806766272,-0.006337540224194527,0.0029778804164379835
1730998137407349000,17.428348876953127,0.007406522985547781,0.001985253533348441,0.0034360159188508987
1730998137440682200,17.46168212890625,-0.005497625097632408,0.004657710436731577,0.00022906772210262716
1730998137474015200,17.49501513671875,-0.008093725889921188,-0.0007635590736754239,0.00022906772210262716
1730998137507348200,17.52834814453125,0.005879404954612255,-0.0015271181473508477,0.0007635590736754239
1730998137540681200,17.56168115234375,0.04161396995186806,0.0035123717971146107,-0.0029778804164379835
1730998137574014200,17.59501416015625,0.0584886260330677,-0.002061609411612153,0.0009162708884105086
1730998137607347200,17.62834716796875,0.05703786388039589,0.006337540224194527,-0.0022143214009702206
1730998137640680200,17.66168017578125,0.09796462953090668,-0.0022906772792339325,0.0022143214009702206
1730998137674013200,17.69501318359375,0.13331741094589233,-0.005879404954612255,0.0019088976550847292
1730998137707346400,17.728346435546875,0.1990598440170288,0.021837789565324783,-0.005955760832875967
1730998137740679400,17.761679443359377,0.3190149664878845,-0.008017370477318764,-0.00022906772210262716
1730998137774012400,17.795012451171875,0.473024845123291,-0.007101099472492933,-0.0017561858985573053
1730998137807345400,17.828345458984376,0.6361974477767944,-0.007559234742075205,-0.004275931045413017
1730998137840678400,17.861678466796874,0.7860077023506165,-0.00992626789957285,-0.007177455350756645
1730998137874011400,17.895011474609376,0.9169580936431885,-0.006642963737249374,-0.009391776286065578
1730998137907344400,17.928344482421874,1.0056072473526,-0.007177455350756645,-0.008780929259955883
1730998137940677400,17.961677490234376,1.0591328144073486,-0.0051158457063138485,-0.00908635277301073
1730998137974010400,17.99501025390625,1.0973107814788818,-0.01779092662036419,-0.007941014133393764
1730998138007343600,18.028343505859375,1.1001359224319458,-0.012369656935334206,-0.006719320081174374
1730998138040676600,18.061676513671873,1.1176214218139648,-0.00992626789957285,-0.008551862090826035
1730998138074009600,18.095009521484375,1.1331216096878052,-0.02092151902616024,-0.0032833039294928312
1730998138107342600,18.128342529296877,1.1694670915603638,-0.015423892997205257,-0.0029778804164379835
1730998138140675600,18.161675537109375,1.219098448753357,-0.02367033064365387,-0.0018325417768210173
1730998138174008600,18.195008544921876,1.1977951526641846,-0.0068720318377017975,-0.008093725889921188
1730998138207341600,18.228341552734374,0.9327637553215027,0.012064233422279358,-0.01175880990922451
1730998138240674600,18.261674560546876,0.5819846987724304,0.005573981441557407,-0.0064902519807219505
1730998138274007600,18.295007568359374,0.2187596708536148,-0.009315420873463154,0.002061609411612153
1730998138307340800,18.3283408203125,-0.0165692325681448,-0.0130568603053689,0.004963133949786425
1730998138340673800,18.361673828125,-0.03924693539738655,-0.0012216945178806782,0.005955760832875967
1730998138374006800,18.3950068359375,0.02710634656250477,-0.010918894782662392,0.0023670331574976444
1730998138407339800,18.42833984375,0.016340164467692375,0.002672456670552492,0.0007635590736754239
1730998138440672800,18.4616728515625,-0.006948387715965509,-0.0017561858985573053,0.001374406274408102
1730998138474005800,18.495005859375,0.0028251686599105597,0.0018325417768210173,0.00038177953683771193
1730998138507338800,18.5283388671875,0.00916270911693573,0.00038177953683771193,0
1730998138540671700,18.561671630859376,0.004352286923676729,0.001374406274408102,0
1730998138574004700,18.595004638671874,0.0016798300202935934,-0.0017561858985573053,0.0029778804164379835
1730998138607338000,18.628337890625,0.004581354558467865,-0.005650337319821119,0.0018325417768210173
1730998138640671000,18.6616708984375,0.0008399150101467967,0,0.0006108472589403391
1730998138674004000,18.69500390625,0.004123218823224306,-0.0022143214009702206,0.0011453386396169662
1730998138707337000,18.7283369140625,0.02053973823785782,-0.004428642801940441,-0.0011453386396169662
1730998138740670000,18.761669921875,0.04031591862440109,-0.0036650835536420345,0.0019088976550847292
1730998138774003000,18.7950029296875,0.05619794875383377,-0.01038440316915512,0.00022906772210262716
1730998138807336000,18.8283359375,0.08521319180727005,-0.00992626789957285,-0.0038177953101694584
1730998138840669000,18.8616689453125,0.10040801763534546,-0.011835165321826935,-0.0015271181473508477
1730998138874002000,18.895001953125,0.1086544543504715,-0.00992626789957285,-0.004352286923676729
1730998138907335200,18.928335205078124,0.12071868777275085,-0.012293301522731781,-0.011835165321826935
1730998138940668200,18.961668212890626,0.14041851460933685,0.004504998680204153,-0.014813045971095562
1730998138974001200,18.995001220703124,0.14942851662635803,0.015576604753732681,-0.012293301522731781
1730998139007334100,19.028334228515625,0.15286453068256378,0.020157959312200546,-0.009773556143045425
1730998139040667100,19.061667236328127,0.15149012207984924,0.0017561858985573053,-0.03489464893937111
1730998139074000100,19.095000244140625,0.168670192360878,0.006413896102458239,-0.07101099193096161
1730998139107333000,19.1283330078125,0.154926136136055,0.009391776286065578,-0.0295497365295887
1730998139140666000,19.161666015625,0.13438639044761658,0.019318044185638428,-0.021532366052269936
1730998139173999000,19.1949990234375,0.11323580890893936,0.008017370477318764,0.0034360159188508987
1730998139207332400,19.228332275390624,0.1077381819486618,-0.009773556143045425,-0.012675080448389053
1730998139240665300,19.261665283203126,0.09597937762737274,-0.004352286923676729,-0.010918894782662392
1730998139273998300,19.294998291015624,0.08956547826528549,0.011377030052244663,0.023899398744106293
1730998139307331300,19.328331298828125,0.07742489129304886,0.036192700266838074,-0.0426829531788826
1730998139340664300,19.361664306640623,0.07421794533729553,0.04856235533952713,0.04092676565051079
1730998139373997300,19.394997314453125,0.06795676052570343,0.011529741808772087,0.009239064529538155
1730998139407330300,19.428330322265627,0.06795676052570343,-0.02733541466295719,0.0004581354442052543
1730998139440663300,19.461663330078125,0.06620056927204132,-0.017561858519911766,0.005268557462841272
1730998139473996300,19.494996337890626,0.07146912813186646,-0.0022906772792339325,-0.019241688773036003
1730998139507329500,19.52832958984375,0.07032378762960434,-0.004199574701488018,-0.017561858519911766
1730998139540662500,19.56166259765625,0.0716218426823616,-0.0019088976550847292,-0.008780929259955883
1730998139573995500,19.59499560546875,0.06994201242923737,-0.004810422193259001,-0.005268557462841272
1730998139607328500,19.62832861328125,0.061771929264068604,-0.023288551717996597,-0.010842538438737392
1730998139640661500,19.66166162109375,0.05673243850469589,-0.004886778071522713,-0.0067956759594380856
1730998139673994500,19.694994384765625,0.049020491540431976,0.00022906772210262716,-0.02244863659143448
1730998139707327500,19.728327392578127,0.05169294774532318,-0.01435491070151329,-0.009620844386518002
1730998139740660500,19.761660400390625,0.05405998229980469,-0.013591351918876171,-0.008857285603880882
1730998139773993500,19.794993408203126,0.04871506989002228,-0.023364907130599022,-0.013591351918876171
1730998139807326700,19.82832666015625,0.05688514932990074,0.011835165321826935,-0.001985253533348441
1730998139840659700,19.86165966796875,0.05795413255691528,0.012293301522731781,-0.029320668429136276
1730998139873992700,19.89499267578125,0.05948125198483467,0.026037365198135376,0.06184828653931618
1730998139907325700,19.92832568359375,0.0525328628718853,-0.004428642801940441,-0.009697199799120426
1730998139940658700,19.96165869140625,0.04932591691613197,-0.013744063675403595,0.0016034740256145597
1730998139973991700,19.99499169921875,0.0462716780602932,-0.021226942539215088,0.0005344913806766272
1730998140007324700,20.02832470703125,0.04772244393825531,-0.007101099472492933,0.02901524491608143
1730998140040657700,20.06165771484375,0.049020491540431976,-0.013438640162348747,0.014889402315020561
1730998140073990700,20.09499072265625,0.049173206090927124,-0.00038177953683771193,0.048638712614774704
1730998140107324000,20.128323974609376,0.04619532451033592,-0.004352286923676729,0.02053973823785782
1730998140140657000,20.161656982421874,0.04031591862440109,0.0037414394319057465,0.025121092796325684
1730998140173990000,20.194989990234376,0.03993413969874382,-0.011529741808772087,0.028557108715176582
1730998140207323000,20.228322998046874,0.03787253051996231,-0.02901524491608143,0.010231691412627697
1730998140240656000,20.26165576171875,0.04718795046210289,-0.011453386396169662,0.012064233422279358
1730998140273988900,20.29498876953125,0.05230379477143288,0.004963133949786425,-0.0011453386396169662
1730998140307321900,20.32832177734375,0.0528382882475853,0.014507622458040714,-0.010231691412627697
1730998140340654800,20.36165478515625,0.05115845799446106,0.008170082233846188,0.02023431472480297
1730998140373988000,20.394988037109375,0.04306473210453987,-0.012369656935334206,0.007711946498602629
1730998140407321000,20.428321044921876,0.0393996499478817,-0.0393996499478817,0.013285927474498749
1730998140440654000,20.461654052734374,0.04253023862838745,-0.04459185153245926,-0.014125842601060867
1730998140473987000,20.494987060546876,0.05154023692011833,-0.00129805039614439,-0.004428642801940441
1730998140507320000,20.528320068359374,0.04963133856654167,0.02367033064365387,-0.012216945178806782
1730998140540653000,20.561653076171876,0.05795413255691528,0.031382277607917786,-0.0022906772792339325
1730998140573986000,20.594986083984374,0.05077667906880379,0.01588202826678753,0.015805672854185104
1730998140607319000,20.628319091796875,0.04879142343997955,-0.00519220158457756,0.006337540224194527
1730998140640652000,20.661652099609373,0.04512634128332138,-0.01038440316915512,-0.005726693198084831
1730998140673985300,20.6949853515625,0.029626091942191124,-0.015194825828075409,-0.01588202826678753
1730998140707318300,20.728318359375,0.028098974376916885,-0.004352286923676729,0.004657710436731577
1730998140740651300,20.7616513671875,0.030542362481355667,-0.022066857665777206,0.011606098152697086
1730998140773984300,20.794984375,0.027029991149902344,0.015805672854185104,-0.013362283818423748
1730998140807317200,20.828317138671874,0.0016798300202935934,0.030160583555698395,-0.011835165321826935
1730998140840650200,20.861650146484376,-0.02145601063966751,0.0004581354442052543,-0.011147962883114815
1730998140873983200,20.894983154296874,-0.06322269141674042,-0.018783552572131157,-0.014965757727622986
1730998140907316200,20.928316162109375,-0.13201937079429626,-0.01046075951308012,-0.01435491070151329
1730998140940649200,20.961649169921873,-0.173404261469841,0.046424392610788345,-0.02695363573729992
1730998140973982500,20.994982421875,-0.20997874438762665,0.04650074616074562,-0.004581354558467865
1730998141007315500,21.0283154296875,-0.25716668367385864,0.04489727318286896,-0.016645587980747223
1730998141040648400,21.0616484375,-0.3080960810184479,-0.005650337319821119,0.008704573847353458
1730998141073981400,21.0949814453125,-0.3426089584827423,-0.032069481909275055,0.0019088976550847292
1730998141107314400,21.128314453125,-0.37078428268432617,-0.04107947647571564,0.00259610079228878
1730998141140647400,21.1616474609375,-0.3903313875198364,-0.023212196305394173,0.03596363216638565
1730998141173980400,21.19498046875,-0.47050508856773376,-0.024662958458065987,0.01252236869186163
1730998141207313400,21.2283134765625,-0.5724402666091919,0.006413896102458239,-0.0029778804164379835
1730998141240646400,21.261646484375,-0.6574243903160095,0.007024743594229221,-0.012293301522731781
1730998141273979600,21.294979736328123,-0.6888066530227661,-0.02214321307837963,-0.026342788711190224
1730998141307312600,21.328312744140625,-0.669564962387085,0.010078979656100273,-0.017409147694706917
1730998141340645600,21.361645751953127,-0.6562026739120483,0.02626643143594265,-0.0231358390301466
1730998141373978600,21.394978515625,-0.6392516493797302,0.015652960166335106,0.08154810965061188
1730998141407311600,21.4283115234375,-0.6489488482475281,0.03214583545923233,0.02176143415272236
1730998141440644600,21.46164453125,-0.6170321106910706,-0.01046075951308012,0.0051158457063138485
1730998141473977600,21.4949775390625,-0.5761816501617432,-0.0021379655227065086,0.0025197449140250683
1730998141507310600,21.528310546875,-0.5089884996414185,0.000687203137204051,0.01954711228609085
1730998141540643600,21.5616435546875,-0.4637857675552368,0.004046862944960594,-0.0022906772792339325
1730998141573976800,21.594976806640624,-0.393385648727417,-0.01817270554602146,0.027869906276464462
1730998141607309800,21.628309814453125,-0.3310792148113251,-0.0010689827613532543,0.01695101149380207
1730998141640642800,21.661642822265627,-0.2570139765739441,0.010918894782662392,0.008017370477318764
1730998141673975800,21.694975830078125,-0.19722731411457062,0.01695101149380207,0.024662958458065987
1730998141707308800,21.728308837890626,-0.15889663994312286,-0.0016798300202935934,0.0022143214009702206
1730998141740641800,21.761641845703124,-0.12873606383800507,-0.00129805039614439,0.04474456235766411
1730998141773974800,21.794974853515626,-0.11285403370857239,-0.023593975231051445,0.027564482763409615
1730998141807307800,21.828307861328124,-0.10590564459562302,-0.00862821750342846,0.030007870867848396
1730998141840640800,21.861640869140626,-0.09177979826927185,-0.023746687918901443,-0.0036650835536420345
1730998141873974000,21.89497412109375,-0.08261708915233612,-0.0038177953101694584,-0.0021379655227065086
1730998141907307000,21.92830712890625,-0.07017108052968979,0.0028251686599105597,-0.0017561858985573053
1730998141940640000,21.961639892578123,-0.0653606578707695,0.01046075951308012,0.04230117425322533
1730998141973973000,21.994972900390625,-0.06352811306715012,0.016340164467692375,0.0165692325681448
1730998142007306000,22.028305908203127,-0.044362783432006836,0.03825430944561958,0.011987877078354359
1730998142040639000,22.061638916015625,0.0017561858985573053,0.018401773646473885,0.004352286923676729
1730998142073972000,22.094971923828126,0.04840964451432228,0.030695075169205666,0.018783552572131157
1730998142107305000,22.128304931640624,0.10033166408538818,0.024281177669763565,-0.014125842601060867
1730998142140638000,22.161637939453126,0.14423631131649017,0.02214321307837963,0.04115583375096321
1730998142173971200,22.19497119140625,0.17057909071445465,0.017561858519911766,0.03634541109204292
1730998142207304200,22.22830419921875,0.18065807223320007,-0.006948387715965509,0.021379653364419937
1730998142240637200,22.26163720703125,0.19348587095737457,-0.019928891211748123,0.014507622458040714
1730998142273970200,22.29497021484375,0.21333840489387512,0.041384901851415634,0.01588202826678753
1730998142307303200,22.32830322265625,0.21791976690292358,0.030007870867848396,0.003359660040587187
1730998142340636200,22.36163623046875,0.2328091561794281,0.004428642801940441,0.004810422193259001
1730998142373969200,22.39496923828125,0.20661908388137817,-0.004275931045413017,-0.014125842601060867
1730998142407302100,22.42830224609375,0.19066070020198822,-0.016187451779842377,-0.023059483617544174
1730998142440635100,22.46163525390625,0.173404261469841,-0.02008160389959812,-0.03367295488715172
1730998142473968400,22.494968505859376,0.17676392197608948,-0.0034360159188508987,-0.03237490355968475
1730998142507301400,22.52830126953125,0.19172967970371246,-0.023975754156708717,-0.03840702027082443
1730998142540634400,22.56163427734375,0.19692188501358032,0.004504998680204153,-0.02832804247736931
1730998142573967400,22.59496728515625,0.20219044387340546,0.002061609411612153,-0.01122431829571724
1730998142607300400,22.62830029296875,0.19821994006633759,-0.00007635590736754239,0.009009997360408306
1730998142640633300,22.66163330078125,0.18844637274742126,-0.011147962883114815,0.0007635590736754239
1730998142673966300,22.69496630859375,0.1856212168931961,0.006261184345930815,0.010995250195264816
1730998142707299300,22.72829931640625,0.188370019197464,0.004657710436731577,0.02764083817601204
1730998142740632600,22.761632568359374,0.1916533261537552,-0.0017561858985573053,0.0031305921729654074
1730998142773965600,22.794965576171876,0.18126893043518066,-0.028251685202121735,-0.012675080448389053
1730998142807298600,22.828298583984374,0.1695101112127304,0.013591351918876171,-0.019928891211748123
1730998142840631600,22.861631591796876,0.15263545513153076,0.04650074616074562,-0.029473381116986275
1730998142873964500,22.894964599609374,0.14408360421657562,0.04963133856654167,0.0022906772792339325
1730998142907297500,22.928297607421875,0.1080436110496521,-0.007711946498602629,0.018630841746926308
1730998142940630500,22.961630615234377,0.09750649333000183,-0.02008160389959812,0.0067956759594380856
1730998142973963500,22.994963623046875,0.08521319180727005,-0.02680092304944992,0.006184828467667103
1730998143007296500,23.028296630859376,0.05864133685827255,0.01046075951308012,0.010613471269607544
1730998143040629800,23.061629638671874,0.033978380262851715,0.017332790419459343,0.008246437646448612
1730998143073962800,23.094962646484376,0.004657710436731577,0.014049487188458443,0.026190076023340225
1730998143107295700,23.128295654296874,-0.01626380905508995,0.011377030052244663,0.010918894782662392
1730998143140628700,23.161628662109376,-0.03184041380882263,-0.006184828467667103,0.0032069480512291193
1730998143173961700,23.194961669921874,-0.06337540596723557,-0.010995250195264816,0.032069481909275055
1730998143207294700,23.228294677734375,-0.08758022636175156,-0.005344913341104984,-0.01435491070151329
1730998143240627700,23.261627685546873,-0.09323056042194366,0.030313294380903244,0.00862821750342846
1730998143273960700,23.294960693359375,-0.09529217332601547,0.0037414394319057465,-0.03527642786502838
1730998143307293700,23.328293701171877,-0.07864658534526825,0.0028251686599105597,-0.04734066128730774
1730998143340627000,23.361626953125,-0.06444438546895981,-0.015347537584602833,-0.047111593186855316
1730998143373960000,23.3949599609375,-0.06200099736452103,-0.014049487188458443,-0.08246438205242157
1730998143407293000,23.42829296875,-0.03596363216638565,-0.02435753494501114,-0.002672456670552492
1730998143440626000,23.4616259765625,-0.049173206090927124,-0.021532366052269936,-0.07505785673856735
1730998143473959000,23.494958984375,-0.05795413255691528,-0.053143709897994995,-0.09964445978403091
1730998143507292000,23.5282919921875,-0.054518118500709534,-0.001374406274408102,-0.07009471952915192
1730998143540625000,23.561625,-0.04879142343997955,0.03718532621860504,-0.07024743407964706
1730998143573958000,23.5949580078125,-0.03833066672086716,0.028786176815629005,-0.03237490355968475
1730998143607291000,23.628290771484377,-0.03802524134516716,0.03733803704380989,-0.01435491070151329
1730998143640624000,23.6616240234375,-0.03894151374697685,0.012140588834881783,-0.03130592033267021
1730998143673957000,23.69495703125,-0.0358109213411808,-0.01916533336043358,-0.00030542362947016954
1730998143707290000,23.7282900390625,-0.03665083646774292,-0.02076880633831024,0.027793550863862038
1730998143740623000,23.761623046875,-0.04367557913064957,-0.001985253533348441,0.06032116711139679
1730998143773956000,23.7949560546875,-0.06528430432081223,-0.007024743594229221,0.04153761267662048
1730998143807289000,23.8282890625,-0.08025006204843521,-0.02244863659143448,0.031916771084070206
1730998143840622000,23.8616220703125,-0.0922379344701767,-0.031534988433122635,0.0261137206107378
1730998143873955000,23.894955078125,-0.08704573661088943,-0.005344913341104984,0.013896775431931019
1730998143907288000,23.9282880859375,-0.08223531395196915,-0.003970507066696882,0.03558185324072838
1730998143940621300,23.961621337890627,-0.07421794533729553,-0.0032069480512291193,0.028480753302574158
1730998143973954300,23.994954345703125,-0.06482616811990738,0.06253548711538315,0.0031305921729654074
1730998144007287300,24.028287353515626,-0.055739812552928925,0.04092676565051079,0.004657710436731577
1730998144040620300,24.061620361328124,-0.06520794332027435,-0.013133215717971325,0.007559234742075205
1730998144073953300,24.094953369140626,-0.060092099010944366,-0.015194825828075409,0.01175880990922451
1730998144107286300,24.128286376953124,-0.052609220147132874,-0.030313294380903244,0.048638712614774704
1730998144140619300,24.161619384765626,-0.05016583204269409,0.004275931045413017,0.03978142887353897
1730998144173952300,24.1949521484375,-0.042759306728839874,0.015805672854185104,0.007711946498602629
1730998144207285200,24.22828515625,-0.04153761267662048,-0.010231691412627697,-0.002672456670552492
1730998144240618500,24.261618408203127,-0.04046862944960594,-0.0064902519807219505,-0.004963133949786425
1730998144273951500,24.294951416015625,-0.039476003497838974,-0.008322793990373611,-0.006719320081174374
1730998144307284500,24.328284423828126,-0.04810422286391258,-0.025655584409832954,0.00786465872079134
1730998144340617500,24.361617431640624,-0.053525492548942566,0.007253811229020357,-0.012980503961443901
1730998144373950500,24.394950439453126,-0.05604523420333862,-0.009544488042593002,0.010918894782662392
1730998144407283500,24.428283447265624,-0.05726693198084831,-0.02489202655851841,0.0067956759594380856
1730998144440616400,24.461616455078126,-0.04840964451432228,-0.016187451779842377,-0.021990500390529633
1730998144473949400,24.494949462890624,-0.03840702027082443,-0.006413896102458239,-0.01832541823387146
1730998144507282400,24.528282470703125,-0.03886515647172928,-0.0164165198802948,-0.02023431472480297
1730998144540615700,24.56161572265625,-0.027259059250354767,-0.0015271181473508477,-0.012140588834881783
1730998144573948700,24.59494873046875,-0.025731941685080528,-0.03214583545923233,-0.02053973823785782
1730998144607281700,24.62828173828125,-0.03061871975660324,-0.023059483617544174,-0.05238015204668045
1730998144640614700,24.66161474609375,-0.029320668429136276,0.007253811229020357,0.019088976085186005
1730998144673947600,24.69494775390625,-0.04016320779919624,0.020616095513105392,-0.03268032893538475
1730998144707280600,24.72828076171875,-0.042759306728839874,0.030160583555698395,-0.04497363045811653
1730998144740613600,24.761613525390626,-0.0462716780602932,0.024433890357613564,-0.021150587126612663
1730998144773946600,24.794946533203124,-0.041766680777072906,0.03733803704380989,-0.012369656935334206
1730998144807279600,24.828279541015625,-0.04184303805232048,0.03489464893937111,-0.005268557462841272
1730998144840612900,24.86161279296875,-0.04184303805232048,-0.0031305921729654074,-0.018783552572131157
1730998144873945900,24.89494580078125,-0.04688252881169319,-0.015958385542035103,0.0005344913806766272
1730998144907278800,24.92827880859375,-0.04428642615675926,-0.01175880990922451,0.0024433890357613564
1730998144940611800,24.96161181640625,-0.034818295389413834,-0.04283566400408745,-0.013744063675403595
1730998144973944800,24.99494482421875,-0.03504735976457596,-0.017561858519911766,0.0130568603053689
1730998145007277800,25.02827783203125,-0.01954711228609085,-0.007941014133393764,0.009468132629990578
1730998145040610800,25.06161083984375,-0.03184041380882263,0.0016034740256145597,0.006261184345930815
1730998145073943800,25.09494384765625,-0.03390202298760414,-0.010842538438737392,-0.00992626789957285
1730998145107277000,25.128277099609374,-0.02817532978951931,0.01511846948415041,-0.00519220158457756
1730998145140610000,25.161610107421875,-0.030007870867848396,0.014125842601060867,0.008322793990373611
1730998145173943000,25.194943115234373,-0.023441264405846596,-0.03367295488715172,0.0293970238417387
1730998145207276000,25.228276123046875,-0.038483377546072006,-0.041766680777072906,0.021914144977927208
1730998145240609000,25.261609130859377,-0.06742226332426071,-0.03687990456819534,0.0390942245721817
1730998145273942000,25.29494189453125,-0.11483928561210632,-0.002672456670552492,0.019928891211748123
1730998145307275000,25.32827490234375,-0.1665322333574295,-0.0031305921729654074,0.019088976085186005
1730998145340608000,25.36160791015625,-0.1949366331100464,-0.01832541823387146,0.024433890357613564
1730998145373941000,25.39494091796875,-0.23662695288658142,0.014049487188458443,0.021990500390529633
1730998145407274200,25.428274169921874,-0.261442631483078,-0.007482878863811493,0.02870982140302658
1730998145440607200,25.461607177734376,-0.277630090713501,-0.0015271181473508477,0.018630841746926308
1730998145473940200,25.494940185546874,-0.30962321162223816,0.0018325417768210173,0.00786465872079134
1730998145507273200,25.528273193359375,-0.33474430441856384,-0.01572931744158268,0.05459447205066681
1730998145540606200,25.561606201171877,-0.39323291182518005,-0.02023431472480297,0.013514995574951172
1730998145573939200,25.594939208984375,-0.43973368406295776,-0.0009926267666742206,-0.004046862944960594
1730998145607272200,25.628272216796876,-0.48493635654449463,0.017867282032966614,-0.017561858519911766
1730998145640605200,25.661605224609374,-0.5537330508232117,0.049707695841789246,0.01695101149380207
1730998145673938200,25.694938232421876,-0.6839962005615234,0.004886778071522713,0.03771981969475746
1730998145707271400,25.728271484375,-0.7714237570762634,-0.028938889503479004,-0.007482878863811493
1730998145740604400,25.7616044921875,-0.8247964978218079,-0.03695625811815262,0.02008160389959812
1730998145773937400,25.7949375,-0.8538880944252014,-0.004199574701488018,-0.006337540224194527
1730998145807270400,25.8282705078125,-0.8286142945289612,-0.018936265259981155,-0.02489202655851841
1730998145840603400,25.861603271484373,-0.7718818783760071,0.01175880990922451,-0.006719320081174374
1730998145873936400,25.894936279296875,-0.6830799579620361,0.020005248486995697,-0.03130592033267021
1730998145907269400,25.928269287109377,-0.5926745533943176,0.07246175408363342,-0.037414394319057465
1730998145940602400,25.961602294921875,-0.5139515995979309,0.04527905210852623,0.04169032722711563
1730998145973935400,25.994935302734376,-0.4901285767555237,0.03542914241552353,-0.012827792204916477
1730998146007268600,26.0282685546875,-0.4888305068016052,0.009773556143045425,0.010766183026134968
1730998146040601600,26.0616015625,-0.46241137385368347,0.010308047756552696,-0.011911521665751934
1730998146073934600,26.0949345703125,-0.4101075828075409,0.011377030052244663,0.02008160389959812
1730998146107267600,26.128267578125,-0.32069480419158936,-0.007024743594229221,-0.001985253533348441
1730998146140600600,26.1616005859375,-0.24021568894386292,-0.01511846948415041,-0.018096350133419037
1730998146173933600,26.19493359375,-0.1787491738796234,-0.012140588834881783,0.02832804247736931
1730998146207266600,26.2282666015625,-0.1450762301683426,0.012827792204916477,-0.030389651656150818
1730998146240599600,26.261599609375,-0.11796987801790237,0.04756972938776016,0.010689826682209969
1730998146273932500,26.2949326171875,-0.11545012891292572,-0.0064902519807219505,-0.020005248486995697
1730998146307265800,26.328265869140626,-0.11560284346342087,-0.05535803362727165,-0.008170082233846188
1730998146340598800,26.361598876953124,-0.08918370306491852,-0.041384901851415634,-0.012369656935334206
1730998146373931800,26.394931884765626,-0.05688514932990074,0.0261137206107378,-0.022372281178832054
1730998146407264800,26.4282646484375,-0.020692450925707817,0.05467082932591438,0.00786465872079134
1730998146440597800,26.46159765625,0.0261137206107378,0.011606098152697086,0.031153209507465363
1730998146473930800,26.4949306640625,0.06383354216814041,0.02473931387066841,-0.0328330397605896
1730998146507263700,26.528263671875,0.16424155235290527,0.05428905040025711,-0.01175880990922451
1730998146540596700,26.5615966796875,0.2602209448814392,0.06016845628619194,0.013133215717971325
1730998146573929700,26.5949296875,0.34306707978248596,-0.014965757727622986,-0.011682453565299511
1730998146607263000,26.628262939453126,0.4226299524307251,-0.03130592033267021,-0.08307522535324097
1730998146640596000,26.661595947265624,0.4934118688106537,-0.009849912486970425,-0.028557108715176582
1730998146673929000,26.694928955078126,0.5496098399162292,-0.016721943393349648,-0.03023693896830082
1730998146707262000,26.728261962890624,0.5961105823516846,0.008857285603880882,-0.021914144977927208
1730998146740595000,26.761594970703126,0.6397861242294312,0.06933116167783737,-0.05856497958302498
1730998146773928000,26.794927978515624,0.6946860551834106,0.036192700266838074,-0.12194038182497025
1730998146807261000,26.828260986328125,0.7664605975151062,-0.013591351918876171,-0.004199574701488018
1730998146840594000,26.861593994140627,0.8364789485931396,-0.030695075169205666,-0.038788799196481705
1730998146873927000,26.894927001953125,0.897334635257721,-0.06612421572208405,-0.047646086663007736
1730998146907260200,26.92826025390625,0.9657495021820068,0.0011453386396169662,-0.033291175961494446
1730998146940593200,26.96159326171875,1.0277504920959473,0.01969982497394085,-0.0686439573764801
1730998146973926100,26.994926025390626,1.0739458799362183,0.005803049076348543,-0.0016798300202935934
1730998147007259100,27.028259033203124,1.0996013879776,0.02542651630938053,-0.01954711228609085
1730998147040592100,27.061592041015626,1.12823486328125,-0.05375456064939499,-0.003359660040587187
1730998147073925000,27.094925048828124,1.144345998764038,-0.018783552572131157,-0.02351761981844902
1730998147107258000,27.128258056640625,1.1535850763320923,0.022906772792339325,-0.025273805484175682
1730998147140591000,27.161591064453123,1.1555702686309814,0.04558447748422623,-0.03955236077308655
1730998147173924000,27.194924072265625,1.0842539072036743,0.06001574173569679,0.031916771084070206
1730998147207257300,27.22825732421875,1.0378295183181763,-0.020310672000050545,-0.004199574701488018
1730998147240590300,27.26159033203125,0.9568922519683838,-0.03199312463402748,0.01252236869186163
1730998147273923300,27.29492333984375,0.8793910145759583,0.0031305921729654074,0.0023670331574976444
1730998147307256300,27.32825634765625,0.8556442856788635,-0.060932014137506485,0.07658497244119644
1730998147340589300,27.36158935546875,0.8258655071258545,0.0008399150101467967,0.01122431829571724
1730998147373922300,27.39492236328125,0.8297596573829651,-0.014660334214568138,0.024662958458065987
1730998147407255300,27.42825537109375,0.8095253109931946,-0.020005248486995697,0.0025197449140250683
1730998147440588300,27.46158837890625,0.7705838084220886,0.00007635590736754239,-0.0064902519807219505
1730998147473921500,27.494921630859373,0.7304205894470215,-0.0009926267666742206,-0.0018325417768210173
1730998147507254500,27.528254638671875,0.6505523324012756,-0.01725643500685692,-0.01954711228609085
1730998147540587500,27.56158740234375,0.5367820262908936,-0.03802524134516716,0.045202698558568954
1730998147573920500,27.59492041015625,0.394225537776947,-0.03382566571235657,-0.0019088976550847292
1730998147607253500,27.62825341796875,0.26159533858299255,-0.06070294603705406,-0.0165692325681448
1730998147640586500,27.66158642578125,0.1868429034948349,-0.022524992004036903,0.015958385542035103
1730998147673919500,27.69491943359375,0.14438901841640472,0.015271181240677834,-0.02298312820494175
1730998147707252500,27.72825244140625,0.11147962510585785,0.001985253533348441,-0.012827792204916477
1730998147740585500,27.76158544921875,0.09269607067108154,-0.03321481868624687,-0.019623467698693275
1730998147773918700,27.794918701171873,0.07185091078281403,-0.030389651656150818,-0.011377030052244663
1730998147807251700,27.828251708984375,0.05421269312500954,-0.023823043331503868,0.00030542362947016954
1730998147840584700,27.861584716796877,0.07001836597919464,0.031076854094862938,0.017332790419459343
1730998147873917700,27.894917724609375,0.057801421731710434,-0.011835165321826935,-0.011911521665751934
1730998147907250700,27.928250732421876,0.0555107444524765,-0.027182703837752342,-0.021685076877474785
1730998147940583700,27.961583740234374,0.05268557742238045,-0.012675080448389053,-0.025350160896778107
1730998147973916700,27.994916748046876,0.0489441379904747,-0.02351761981844902,-0.031382277607917786
1730998148007249700,28.028249755859374,0.07398887723684311,-0.001985253533348441,0.0650552362203598
1730998148040582700,28.061582763671876,0.029473381116986275,-0.03176405653357506,0.005650337319821119
1730998148073916000,28.094916015625,-0.025273805484175682,-0.021379653364419937,-0.023899398744106293
1730998148107249000,28.128248779296875,-0.08719844371080399,-0.0022143214009702206,-0.04031591862440109
1730998148140582000,28.161581787109377,-0.14813046157360077,0.005879404954612255,0.06261184066534042
1730998148173915000,28.194914794921875,-0.2050156146287918,0.022906772792339325,0.01710372418165207
1730998148207248000,28.228247802734376,-0.25121092796325684,0.014202198944985867,0.008399149402976036
1730998148240580900,28.261580810546874,-0.3032093048095703,-0.023059483617544174,0.00908635277301073
1730998148273913900,28.294913818359376,-0.3573456406593323,-0.0008399150101467967,-0.014660334214568138
1730998148307246800,28.328246826171874,-0.4041518270969391,-0.0393996499478817,0.048486001789569855
1730998148340579800,28.361579833984376,-0.3874298632144928,0.0032069480512291193,-0.02023431472480297
1730998148373913000,28.3949130859375,-0.3077906668186188,0.020310672000050545,-0.008246437646448612
1730998148407246000,28.42824609375,-0.23693238198757172,0.041384901851415634,-0.028098974376916885
1730998148440579000,28.4615791015625,-0.17783290147781372,0.04184303805232048,-0.04581354558467865
1730998148473912000,28.494912109375,-0.1465269923210144,0.02886253222823143,-0.04665346071124077
1730998148507245000,28.5282451171875,-0.12354385852813721,0.032756682485342026,0.012827792204916477
1730998148540578000,28.561578125,-0.10750912129878998,-0.022601349279284477,-0.03779617324471474
1730998148573911000,28.5949111328125,-0.08338065445423126,-0.02420482225716114,-0.010842538438737392
1730998148607244000,28.628244140625,-0.07429429888725281,-0.025808297097682953,0.001374406274408102
1730998148640577000,28.661576904296876,-0.06306997686624527,-0.008551862090826035,0.005268557462841272
1730998148673910300,28.69491015625,-0.056427016854286194,0.01175880990922451,0.000687203137204051
1730998148707243300,28.7282431640625,-0.04879142343997955,-0.00786465872079134,0.006413896102458239
1730998148740576300,28.761576171875,-0.03596363216638565,-0.007941014133393764,0.000687203137204051
1730998148773909200,28.7949091796875,-0.030847785994410515,0.0016798300202935934,0.01847812905907631
1730998148807242200,28.8282421875,-0.026877280324697495,0.01847812905907631,-0.0029015245381742716
1730998148840575200,28.8615751953125,-0.029167955741286278,0.018249060958623886,0.0025197449140250683
1730998148873908200,28.894908203125,-0.03290939703583717,-0.0025197449140250683,0.009544488042593002
1730998148907241200,28.9282412109375,-0.007941014133393764,-0.018554486334323883,0.013438640162348747
1730998148940574200,28.96157421875,0.00259610079228878,-0.016111096367239952,0.009620844386518002
1730998148973907500,28.994907470703126,0.011682453565299511,-0.008093725889921188,0.006948387715965509
1730998149007240400,29.028240478515624,-0.0067956759594380856,-0.007253811229020357,0.004886778071522713
1730998149040573400,29.061573486328125,-0.013514995574951172,-0.009849912486970425,0.0038177953101694584
1730998149073906400,29.094906494140623,-0.014889402315020561,-0.004657710436731577,0.0012216945178806782
1730998149107239400,29.128239501953125,-0.0065666078589856625,-0.0015271181473508477,0.00015271181473508477
1730998149140572400,29.161572509765627,0.005955760832875967,0.00022906772210262716,-0.0009926267666742206
1730998149173905400,29.194905517578125,-0.0067956759594380856,0.0016798300202935934,-0.0012216945178806782
1730998149207238400,29.22823828125,-0.018019994720816612,0.0009162708884105086,-0.0009926267666742206
1730998149240571400,29.2615712890625,-0.0004581354442052543,-0.00015271181473508477,-0.0005344913806766272
1730998149273904600,29.294904541015626,0.006108472589403391,0.0016798300202935934,-0.0007635590736754239
1730998149307237600,29.328237548828124,-0.00519220158457756,0.001374406274408102,-0.0008399150101467967
1730998149340570600,29.361570556640626,0.0009162708884105086,0.00129805039614439,-0.000687203137204051
1730998149373903600,29.394903564453124,0.00038177953683771193,0.0022906772792339325,-0.0006108472589403391
1730998149407236600,29.428236572265625,-0.0029778804164379835,0.001374406274408102,-0.00015271181473508477
1730998149440569600,29.461569580078127,0,0.0004581354442052543,0.00030542362947016954
1730998149473902600,29.494902587890625,-0.0004581354442052543,0.0009162708884105086,0.00015271181473508477
1730998149507235600,29.528235595703126,-0.0009162708884105086,-0.00015271181473508477,0
1730998149540568600,29.561568603515624,-0.00015271181473508477,0.00030542362947016954,0.0004581354442052543
1730998149573901800,29.59490185546875,-0.0006108472589403391,0.0004581354442052543,0.00030542362947016954
1730998149607234800,29.62823486328125,-0.00015271181473508477,0,-0.0004581354442052543
1730998149640567800,29.66156787109375,0.00022906772210262716,0.00038177953683771193,0
1730998149673900800,29.69490087890625,-0.0009162708884105086,-0.00015271181473508477,-0.0006108472589403391
1730998149707233800,29.72823388671875,-0.00030542362947016954,0.0004581354442052543,-0.00030542362947016954
1730998149740566800,29.76156689453125,-0.00030542362947016954,0.00022906772210262716,0
1730998149773899800,29.794899658203125,-0.00030542362947016954,-0.00015271181473508477,0
1730998149807232800,29.828232666015627,-0.00022906772210262716,0.0009162708884105086,0
1730998149840565800,29.861565673828125,-0.00030542362947016954,0.0004581354442052543,0
1730998149873899000,29.89489892578125,0.00007635590736754239,0.0004581354442052543,0
1730998149907232000,29.92823193359375,-0.00030542362947016954,0.0004581354442052543,0
1730998149940565000,29.96156494140625,-0.00030542362947016954,-0.00007635590736754239,-0.0004581354442052543
1730998149973898000,29.99489794921875,-0.00007635590736754239,0.0004581354442052543,0
1730998150007231000,30.02823095703125,-0.0007635590736754239,0.0008399150101467967,-0.00038177953683771193
1730998150040564000,30.06156396484375,0.00022906772210262716,0.0004581354442052543,-0.0006108472589403391
1730998150073897000,30.09489697265625,0.00022906772210262716,0.0004581354442052543,-0.00007635590736754239
1730998150107230000,30.12822998046875,0.00030542362947016954,0.000687203137204051,0
1730998150140563200,30.161563232421877,0.00007635590736754239,0.0004581354442052543,0
1730998150173896200,30.194896240234375,0.00015271181473508477,0.0004581354442052543,0
1730998150207229200,30.228229248046876,0.00022906772210262716,-0.00015271181473508477,0
1730998150240562200,30.261562255859374,0.00007635590736754239,0.00022906772210262716,0
1730998150273895200,30.294895263671876,-0.0006108472589403391,0.0004581354442052543,-0.00022906772210262716
1730998150307228200,30.328228271484374,-0.00030542362947016954,0.0004581354442052543,-0.0004581354442052543
1730998150340561200,30.36156103515625,-0.00030542362947016954,-0.00015271181473508477,0
1730998150373894100,30.39489404296875,0.00030542362947016954,0.000687203137204051,-0.00038177953683771193
1730998150407227100,30.42822705078125,-0.00030542362947016954,0.0007635590736754239,-0.00030542362947016954
1730998150440560400,30.461560302734377,0.00030542362947016954,0.0004581354442052543,-0.0006108472589403391
1730998150473893400,30.494893310546875,-0.00030542362947016954,0.0004581354442052543,0
1730998150507226400,30.528226318359376,-0.00015271181473508477,-0.00015271181473508477,0
1730998150540559400,30.561559326171874,-0.00030542362947016954,0.0004581354442052543,0
1730998150573892400,30.594892333984376,-0.00022906772210262716,0.0004581354442052543,-0.0006108472589403391
1730998150607225300,30.628225341796874,0.0009162708884105086,0.0004581354442052543,0
1730998150640558300,30.661558349609376,-0.00030542362947016954,0.00030542362947016954,0
1730998150673891300,30.694891357421874,-0.00030542362947016954,0.0004581354442052543,-0.0006108472589403391
1730998150707224300,30.728224365234375,-0.00015271181473508477,0.00030542362947016954,-0.00015271181473508477
1730998150740557600,30.7615576171875,0.00030542362947016954,0.0004581354442052543,0.0006108472589403391
1730998150773890600,30.794890625,0.00015271181473508477,0.0004581354442052543,0
1730998150807223600,30.8282236328125,-0.00007635590736754239,0.00015271181473508477,-0.00030542362947016954
1730998150840556500,30.861556640625,-0.00015271181473508477,0.00022906772210262716,-0.00015271181473508477
1730998150873889500,30.8948896484375,-0.00030542362947016954,0.0004581354442052543,-0.0005344913806766272
1730998150907222500,30.928222412109374,0.00015271181473508477,-0.00007635590736754239,0
1730998150940555500,30.961555419921876,0.00030542362947016954,-0.00007635590736754239,0
1730998150973888500,30.994888427734374,-0.00007635590736754239,0,0
1730998151007221500,31.028221435546875,-0.00030542362947016954,0.0004581354442052543,0
1730998151040554800,31.0615546875,-0.00022906772210262716,0.0004581354442052543,0
1730998151073887700,31.0948876953125,0,-0.00015271181473508477,0
1730998151107220700,31.128220703125,0.00007635590736754239,0.00022906772210262716,0.00022906772210262716
1730998151140553700,31.1615537109375,0.0008399150101467967,-0.00519220158457756,0.005879404954612255
1730998151173886700,31.19488671875,0.0008399150101467967,-0.005803049076348543,0.0036650835536420345
1730998151207219700,31.2282197265625,0.003359660040587187,0.0016798300202935934,-0.00030542362947016954
1730998151240552700,31.261552734375,-0.011453386396169662,0.007482878863811493,-0.0038941511884331703
1730998151273885700,31.2948857421875,-0.018707197159528732,0.008933641016483307,-0.003359660040587187
1730998151307218700,31.32821875,-0.009009997360408306,0.0009162708884105086,-0.00015271181473508477
1730998151340552000,31.361552001953125,-0.0009926267666742206,-0.00022906772210262716,0.0008399150101467967
1730998151373885000,31.394885009765623,-0.0008399150101467967,0.0011453386396169662,0
1730998151407218000,31.428218017578125,-0.0008399150101467967,-0.0015271181473508477,0.0012216945178806782
1730998151440551000,31.461551025390627,-0.0009162708884105086,-0.0009162708884105086,0.0018325417768210173
1730998151473884000,31.4948837890625,-0.0015271181473508477,-0.0034360159188508987,0.0032833039294928312
1730998151507217000,31.528216796875,-0.0021379655227065086,-0.005879404954612255,0.004199574701488018
1730998151540550000,31.5615498046875,-0.0031305921729654074,-0.00519220158457756,0.005803049076348543
1730998151573883000,31.5948828125,0.005955760832875967,0.00022906772210262716,0.00022906772210262716
1730998151607215900,31.6282158203125,0.004963133949786425,0.0009162708884105086,-0.0005344913806766272
1730998151640549000,31.661549072265625,-0.037567105144262314,0.00129805039614439,-0.00007635590736754239
1730998151673882000,31.694882080078123,-0.008093725889921188,0.0050394898280501366,-0.00519220158457756
1730998151707215000,31.728215087890625,-0.0011453386396169662,-0.0006108472589403391,-0.00015271181473508477
1730998151740548000,31.761548095703127,-0.018096350133419037,-0.0004581354442052543,0.007406522985547781
1730998151773881000,31.794881103515625,0.0009926267666742206,0.004428642801940441,0.007330167107284069
1730998151807214000,31.828214111328126,-0.015194825828075409,-0.005344913341104984,0.01175880990922451
1730998151840547000,31.861547119140624,0.0032833039294928312,-0.004428642801940441,0.009773556143045425
1730998151873880000,31.894880126953126,-0.0012216945178806782,0.0035123717971146107,0.0065666078589856625
1730998151907213000,31.928213134765624,0.013973130844533443,0.010231691412627697,0.006719320081174374
1730998151940546300,31.96154638671875,0.04512634128332138,0.005497625097632408,0.010155336000025272
1730998151973879300,31.99487939453125,0.11063970625400543,0.014813045971095562,0.0067956759594380856
1730998152007212300,32.02821240234375,0.15233004093170166,0.01122431829571724,0.0015271181473508477
1730998152040545300,32.06154516601563,0.17080816626548767,-0.011835165321826935,0.012980503961443901
1730998152073878300,32.09487817382813,0.22540263831615448,0.0025197449140250683,0.0022143214009702206
1730998152107211300,32.12821118164062,0.31031039357185364,0.031076854094862938,-0.01435491070151329
1730998152140544300,32.161544189453124,0.3836120665073395,-0.0025197449140250683,-0.005879404954612255
1730998152173877200,32.194877197265626,0.436068594455719,-0.023212196305394173,-0.0004581354442052543
1730998152207210200,32.22821020507813,0.51998370885849,-0.030389651656150818,0.010002624243497849
1730998152240543500,32.26154345703125,0.6172611713409424,0.00015271181473508477,0.03840702027082443
1730998152273876500,32.29487646484375,0.6825454831123352,-0.01695101149380207,0.018249060958623886
1730998152307209500,32.32820947265625,0.7076665759086609,0.011071606539189816,-0.014583977870643139
1730998152340542500,32.36154248046875,0.7249229550361633,-0.006032116711139679,-0.014965757727622986
1730998152373875500,32.39487548828125,0.7113316059112549,-0.031000498682260513,0.03367295488715172
1730998152407208400,32.42820849609375,0.7118661403656006,0.025961007922887802,-0.017867282032966614
1730998152440541400,32.46154150390625,0.7243884801864624,-0.034131091088056564,-0.005268557462841272
1730998152473874400,32.49487451171875,0.6957550048828125,-0.0028251686599105597,-0.012827792204916477
1730998152507207700,32.52820776367187,0.6521558165550232,0.010155336000025272,0.02710634656250477
1730998152540540700,32.561540771484374,0.5155550837516785,-0.004046862944960594,0.011071606539189816
1730998152573873700,32.594873779296876,0.38758260011672974,0.016492875292897224,0.02489202655851841
1730998152607206700,32.62820654296875,0.2668638825416565,0.017561858519911766,-0.005268557462841272
1730998152640539600,32.66153955078125,0.17317520081996918,0.009315420873463154,-0.03626905754208565
1730998152673872600,32.69487255859375,0.055892523378133774,0.011300674639642239,0.05238015204668045
1730998152707205600,32.72820556640625,-0.07757759839296341,-0.06413896381855011,0.022066857665777206
1730998152740538600,32.76153857421875,-0.20371755957603455,-0.05131116881966591,-0.01748550310730934
1730998152773871600,32.79487158203125,-0.31199023127555847,0.005344913341104984,-0.0755159929394722
1730998152807204900,32.82820483398437,-0.39384377002716064,0.0659715011715889,-0.05337277799844742
1730998152840537900,32.861537841796874,-0.43652671575546265,0.05535803362727165,0.0014507622690871358
1730998152873870800,32.894870849609376,-0.4680617153644562,0.05123481526970863,-0.020157959312200546
1730998152907203800,32.92820385742188,-0.46370941400527954,-0.011453386396169662,-0.01885990984737873
1730998152940536800,32.96153686523437,-0.45912808179855347,-0.00519220158457756,-0.02008160389959812
1730998152973869800,32.99486987304687,-0.46302223205566406,0.0068720318377017975,-0.03817795217037201
1730998153007202800,33.028202880859375,-0.46340399980545044,-0.005344913341104984,0.019394399598240852
1730998153040535800,33.06153588867188,-0.49623703956604004,-0.0653606578707695,-0.030542362481355667
1730998153073868800,33.09486889648438,-0.5170058608055115,-0.08055548369884491,-0.03802524134516716
1730998153107202000,33.1282021484375,-0.4853181540966034,-0.020005248486995697,-0.026495499536395073
1730998153140535000,33.16153515625,-0.46577104926109314,0.019776180386543274,-0.019088976085186005
1730998153173868000,33.194867919921876,-0.463556706905365,0.07963921129703522,-0.05665608495473862
1730998153207201000,33.22820092773438,-0.47707170248031616,0.042606595903635025,-0.02993151545524597
1730998153240534000,33.26153393554687,-0.5066214203834534,0.024433890357613564,-0.024586603045463562
1730998153273867000,33.294866943359374,-0.5265503525733948,0.02764083817601204,-0.0030542362947016954
1730998153307200000,33.328199951171875,-0.5514423847198486,0.025350160896778107,0.004352286923676729
1730998153340533000,33.36153295898438,-0.6036698222160339,0.02557922899723053,0.08742751181125641
1730998153373866000,33.39486596679688,-0.6810947060585022,0.0024433890357613564,0.04016320779919624
1730998153407199200,33.42819921875,-0.7328640222549438,0.011911521665751934,0.008857285603880882
1730998153440532200,33.4615322265625,-0.7641699314117432,0.005421269219368696,0.0037414394319057465
1730998153473865200,33.494865234375,-0.8119687438011169,0.005344913341104984,0.04932591691613197
1730998153507198200,33.5281982421875,-0.8486959338188171,0.006413896102458239,0.012904148548841476
1730998153540531200,33.56153125,-0.9163472652435303,-0.0164165198802948,0.031916771084070206
1730998153573864200,33.5948642578125,-1.0092723369598389,0.06757497787475586,-0.010842538438737392
1730998153607197200,33.628197265625,-1.0419527292251587,-0.02695363573729992,0.012675080448389053
1730998153640530200,33.6615302734375,-1.0295066833496094,-0.0036650835536420345,0.059710320085287094
1730998153673863200,33.69486328125,-1.0137773752212524,0.008933641016483307,0.03199312463402748
1730998153707196400,33.728196533203125,-0.9441407918930054,0.0462716780602932,-0.01847812905907631
1730998153740529400,33.761529296875,-0.8589276075363159,0.05085303261876106,-0.01847812905907631
1730998153773862400,33.7948623046875,-0.7860840559005737,0.02489202655851841,0.028633465990424156
1730998153807195400,33.8281953125,-0.7315659523010254,0.0015271181473508477,0.05482354015111923
1730998153840528400,33.8615283203125,-0.6788040399551392,0.058870404958724976,0.05070032179355621
1730998153873861400,33.894861328125,-0.6397097706794739,0.01695101149380207,0.04978405311703682
1730998153907194400,33.9281943359375,-0.6308525204658508,0.08964183181524277,0.05528167635202408
1730998153940527400,33.96152734375,-0.6071822047233582,-0.0023670331574976444,0.05596888065338135
1730998153973860400,33.9948603515625,-0.5550310611724854,-0.005955760832875967,0.09368869662284851
1730998154007193600,34.028193603515625,-0.4981459379196167,0.02244863659143448,0.07116370648145676
1730998154040526600,34.06152661132813,-0.41415444016456604,0.05291464552283287,0.06963659077882767
1730998154073859600,34.09485961914063,-0.3142809271812439,0.06749862432479858,0.07124006003141403
1730998154107192600,34.12819262695312,-0.2576248347759247,-0.05657972767949104,0.08276980370283127
1730998154140525600,34.161525634765624,-0.20852798223495483,-0.0656660795211792,0.023823043331503868
1730998154173858600,34.194858642578126,-0.1668376624584198,-0.04046862944960594,0.02817532978951931
1730998154207191600,34.22819165039063,-0.12820157408714294,0.03130592033267021,0.016340164467692375
1730998154240524500,34.26152465820312,-0.10880716890096664,0.0015271181473508477,0.03497100621461868
1730998154273857500,34.294857421875,-0.06390989571809769,0.05199837312102318,-0.004886778071522713
1730998154307190800,34.328190673828125,0.019088976085186005,0.03512371703982353,-0.0004581354442052543
1730998154340523800,34.36152368164063,0.08490777015686035,-0.013591351918876171,-0.0456608310341835
1730998154373856800,34.39485668945313,0.13270656764507294,0.006184828467667103,-0.04421006888151169
1730998154407189800,34.42818969726562,0.16821207106113434,-0.06047387793660164,0.015271181240677834
1730998154440522800,34.461522705078124,0.20081603527069092,-0.051769305020570755,-0.03871244564652443
1730998154473855700,34.494855712890626,0.2522799074649811,0.02214321307837963,-0.04169032722711563
1730998154507188700,34.52818872070313,0.30282753705978394,0.030847785994410515,-0.05741964280605316
1730998154540521700,34.56152172851562,0.3584909737110138,-0.014278554357588291,-0.01572931744158268
1730998154573854700,34.594854736328124,0.4149180054664612,-0.033978380262851715,0.04818057641386986
1730998154607188000,34.62818798828125,0.453095942735672,-0.04619532451033592,0.031153209507465363
1730998154640521000,34.66152099609375,0.46897798776626587,-0.016187451779842377,-0.03268032893538475
1730998154673854000,34.69485400390625,0.4680617153644562,-0.02557922899723053,-0.031076854094862938
1730998154707187000,34.72818701171875,0.48004958033561707,-0.008933641016483307,-0.011911521665751934
1730998154740520000,34.76152001953125,0.49585527181625366,0.01382041908800602,-0.15599511563777924
1730998154773853000,34.79485302734375,0.5316661596298218,0.01969982497394085,-0.031229566782712936
1730998154807186000,34.82818603515625,0.5464792251586914,-0.016492875292897224,-0.06513158977031708
1730998154840519000,34.86151879882812,0.5639647245407104,-0.025808297097682953,-0.0325276181101799
1730998154873852200,34.89485205078125,0.5908420085906982,-0.005421269219368696,-0.00038177953683771193
1730998154907185200,34.92818505859375,0.6087092757225037,0.015500249341130257,0.0028251686599105597
1730998154940518100,34.96151806640625,0.6050441861152649,-0.015805672854185104,-0.016340164467692375
1730998154973851100,34.99485107421875,0.6068767309188843,-0.0050394898280501366,-0.019241688773036003
1730998155007184100,35.02818408203125,0.6279509663581848,-0.0067956759594380856,0.025121092796325684
1730998155040517000,35.06151708984375,0.6185591816902161,-0.006719320081174374,0.01779092662036419
1730998155073850000,35.09485009765625,0.61481773853302,-0.005573981441557407,0.07139277458190918
1730998155107183000,35.12818310546875,0.572134792804718,0.005879404954612255,0.007941014133393764
1730998155140516000,35.16151611328125,0.498222291469574,-0.07643226534128189,0.06757497787475586
1730998155173849300,35.194849365234376,0.3662029206752777,-0.06184828653931618,0.04840964451432228
1730998155207182300,35.22818237304688,0.24617144465446472,-0.022219568490982056,0.03268032893538475
1730998155240515300,35.26151538085937,0.11621369421482086,-0.020845163613557816,-0.012980503961443901
1730998155273848300,35.29484838867187,0.026495499536395073,-0.051463883370161057,-0.011529741808772087
1730998155307181300,35.328181396484375,-0.040010496973991394,0.120871402323246,0.03451287001371384
1730998155340514300,35.36151440429688,-0.11338852345943451,0.008170082233846188,-0.030313294380903244
1730998155373847300,35.39484741210938,-0.1752368062734604,-0.09063446521759033,-0.029473381116986275
1730998155407180300,35.42818017578125,-0.20852798223495483,-0.07803573459386826,0.034818295389413834
1730998155440513300,35.46151318359375,-0.23655059933662415,-0.023288551717996597,0.00908635277301073
1730998155473846500,35.494846435546876,-0.2591519355773926,0.02710634656250477,0.007253811229020357
1730998155507179500,35.52817944335938,-0.2999260127544403,0.027259059250354767,-0.04421006888151169
1730998155540512500,35.56151245117187,-0.33619505167007446,0.02993151545524597,-0.007635590620338917
1730998155573845500,35.59484545898437,-0.3432198166847229,-0.005421269219368696,0.036192700266838074
1730998155607178500,35.628178466796875,-0.3286358118057251,-0.019394399598240852,0.044820915907621384
1730998155640511500,35.66151147460938,-0.29481014609336853,0.0030542362947016954,-0.000687203137204051
1730998155673844500,35.69484448242188,-0.2686964273452759,0.05329642444849014,0.012216945178806782
1730998155707177500,35.72817749023437,-0.2739650011062622,0.059710320085287094,-0.004046862944960594
1730998155740510500,35.761510498046874,-0.3061871826648712,-0.018019994720816612,0.014736690558493137
1730998155773843700,35.79484375,-0.3286358118057251,-0.02695363573729992,0.009239064529538155
1730998155807176700,35.8281767578125,-0.34398335218429565,0.01122431829571724,-0.04749337583780289
1730998155840509700,35.861509765625,-0.3295520842075348,0.07291989028453827,-0.061619218438863754
1730998155873842700,35.8948427734375,-0.30641624331474304,0.050929389894008636,-0.07711946964263916
1730998155907175700,35.92817578125,-0.28251686692237854,0.012598725035786629,-0.05864133685827255
1730998155940508700,35.9615087890625,-0.26724568009376526,0.004352286923676729,-0.0584886260330677
1730998155973841700,35.99484155273438,-0.2549523711204529,-0.016874656081199646,-0.02993151545524597
1730998156007174700,36.02817456054687,-0.25357797741889954,0.041232191026210785,-0.049860406666994095
1730998156040507600,36.061507568359374,-0.24708771705627441,0.02817532978951931,-0.0261137206107378
1730998156073841000,36.0948408203125,-0.24075017869472504,-0.014736690558493137,-0.007330167107284069
1730998156107174000,36.128173828125,-0.22990763187408447,-0.03687990456819534,0.0032069480512291193
1730998156140507000,36.1615068359375,-0.19119518995285034,-0.006719320081174374,-0.014202198944985867
1730998156173840000,36.19483984375,-0.15416257083415985,0.040544986724853516,0.0029778804164379835
1730998156207172900,36.2281728515625,-0.12186402827501297,0.028251685202121735,-0.02764083817601204
1730998156240505900,36.261505859375,-0.10819631814956665,-0.015576604753732681,-0.012980503961443901
1730998156273838800,36.2948388671875,-0.10422581434249878,-0.04031591862440109,-0.020692450925707817
1730998156307171800,36.328171875,-0.10002623498439789,-0.01969982497394085,-0.0031305921729654074
1730998156340504800,36.3615048828125,-0.08842013776302338,0.059710320085287094,-0.05062396824359894
1730998156373838000,36.39483813476563,-0.07559234648942947,0.09926267713308334,-0.06261184066534042
1730998156407171000,36.42817114257812,-0.05276193097233772,0.0068720318377017975,-0.045202698558568954
1730998156440504000,36.461504150390624,-0.01885990984737873,-0.0023670331574976444,-0.01695101149380207
1730998156473837000,36.494837158203126,0.01511846948415041,-0.029167955741286278,-0.005268557462841272
1730998156507170000,36.52817016601563,0.044515494257211685,0.03336753323674202,-0.023823043331503868
1730998156540503000,36.5615029296875,0.0558161698281765,-0.008170082233846188,-0.019776180386543274
1730998156573836000,36.5948359375,0.04886778071522713,-0.02053973823785782,0.02832804247736931
1730998156607169000,36.6281689453125,0.03542914241552353,-0.031000498682260513,-0.014965757727622986
1730998156640502000,36.661501953125,0.05497625470161438,-0.007941014133393764,0.01725643500685692
1730998156673835300,36.69483520507813,0.06734590977430344,0.08185353130102158,-0.05635065957903862
1730998156707168300,36.72816821289062,0.10888352245092392,0.03840702027082443,-0.040010496973991394
1730998156740501200,36.761501220703124,0.1405712217092514,0.02351761981844902,-0.02542651630938053
1730998156773834200,36.794834228515626,0.1388150453567505,0.024281177669763565,-0.08368607610464096
1730998156807167200,36.82816723632813,0.14278554916381836,0.006184828467667103,-0.0014507622690871358
1730998156840500200,36.86150024414062,0.12392564117908478,-0.0364217683672905,0.021990500390529633
1730998156873833200,36.89483325195312,0.10811996459960938,-0.01511846948415041,0.04734066128730774
1730998156907166200,36.928166259765625,0.10277505218982697,-0.0009162708884105086,0.05008947476744652
1730998156940499200,36.96149926757813,0.10712733864784241,0.008246437646448612,0.05337277799844742
1730998156973832400,36.99483251953125,0.12033691257238388,0.04390464723110199,-0.012293301522731781
1730998157007165400,37.02816552734375,0.13247749209403992,-0.023823043331503868,0.018707197159528732
1730998157040498400,37.06149853515625,0.13591352105140686,-0.020692450925707817,0.03245126083493233
1730998157073831400,37.09483154296875,0.1388150453567505,-0.020845163613557816,0.0004581354442052543
1730998157107164400,37.12816430664063,0.1143047958612442,-0.0064902519807219505,0.014889402315020561
1730998157140497400,37.16149731445312,0.10033166408538818,0.0231358390301466,-0.025655584409832954
1730998157173830400,37.194830322265624,0.09651386737823486,0.00992626789957285,-0.012904148548841476
1730998157207163400,37.228163330078125,0.09689565002918243,0.021532366052269936,-0.021532366052269936
1730998157240496600,37.26149658203125,0.11613733321428299,0.007482878863811493,-0.0038177953101694584
1730998157273829600,37.29482958984375,0.1253764033317566,0.010613471269607544,-0.021303297951817513
1730998157307162600,37.32816259765625,0.139960378408432,-0.010231691412627697,-0.007559234742075205
1730998157340495600,37.36149560546875,0.15859122574329376,-0.04932591691613197,-0.0019088976550847292
1730998157373828600,37.39482861328125,0.15973655879497528,0.010078979656100273,0.0028251686599105597
1730998157407161600,37.42816162109375,0.1721825748682022,0.0035123717971146107,0.009544488042593002
1730998157440494600,37.46149462890625,0.1653105467557907,0.02244863659143448,-0.03176405653357506
1730998157473827600,37.49482763671875,0.1772984117269516,-0.03924693539738655,-0.02817532978951931
1730998157507160600,37.52816064453125,0.19295138120651245,-0.0492495596408844,-0.016492875292897224
1730998157540493800,37.56149389648437,0.20753535628318787,-0.06841489672660828,-0.007941014133393764
1730998157573826800,37.59482690429687,0.21211670339107513,-0.040010496973991394,-0.010537114925682545
1730998157607159800,37.628159912109375,0.19386765360832214,0.014278554357588291,-0.05604523420333862
1730998157640492800,37.661492919921876,0.17439688742160797,0.0028251686599105597,0.016721943393349648
1730998157673825800,37.69482568359375,0.14751961827278137,0.02802261710166931,-0.012140588834881783
1730998157707158800,37.72815869140625,0.1291942000389099,0.01969982497394085,0.04115583375096321
1730998157740491800,37.76149169921875,0.10682191699743271,0.02870982140302658,0.012827792204916477
1730998157773824800,37.79482470703125,0.09170344471931458,-0.03573456406593323,0.024586603045463562
1730998157807157800,37.82815771484375,0.08322793990373611,-0.05810684710741043,0.060779303312301636
1730998157840491000,37.86149096679687,0.07734853774309158,-0.04359922185540199,0.029091600328683853
1730998157873824000,37.89482397460937,0.06322269141674042,0.02504473738372326,0.0037414394319057465
1730998157907157000,37.928156982421875,0.03268032893538475,0.027793550863862038,0.007482878863811493
1730998157940490000,37.96148999023438,-0.009009997360408306,0,0.06360447406768799
1730998157973823000,37.99482299804688,-0.055892523378133774,-0.0456608310341835,0.08605311065912247
1730998158007156000,38.02815600585937,-0.09636115282773972,-0.0024433890357613564,0.08811471611261368
1730998158040489000,38.061489013671874,-0.1280488520860672,0.03764346241950989,0.040697697550058365
1730998158073822000,38.094822021484376,-0.15110833942890167,0.015958385542035103,0.04932591691613197
1730998158107155000,38.12815502929688,-0.1874537467956543,-0.027182703837752342,0.056427016854286194
1730998158140488200,38.16148828125,-0.2226538211107254,-0.04604261368513107,0.07024743407964706
1730998158173821200,38.1948212890625,-0.2773246467113495,-0.004046862944960594,0.00908635277301073
1730998158207154200,38.228154296875,-0.3214583694934845,0.0328330397605896,-0.06551336497068405
1730998158240487200,38.26148706054688,-0.3557421863079071,-0.0028251686599105597,-0.04146125912666321
1730998158273820200,38.29482006835938,-0.38307759165763855,-0.023899398744106293,-0.025273805484175682
1730998158307153200,38.32815307617187,-0.38849884271621704,0.008170082233846188,-0.08628217875957489
1730998158340486100,38.361486083984374,-0.37803810834884644,0.09040539711713791,-0.04375193640589714
1730998158373819100,38.394819091796876,-0.3658975064754486,0.08078455179929733,-0.05123481526970863
1730998158407152000,38.42815209960938,-0.35620030760765076,-0.010308047756552696,0.031382277607917786
1730998158440485400,38.4614853515625,-0.3883461356163025,-0.004199574701488018,0.03336753323674202
1730998158473818400,38.494818359375,-0.4333197772502899,-0.050547610968351364,0.015805672854185104
1730998158507151400,38.5281513671875,-0.4641675651073456,-0.02107422985136509,0.050929389894008636
1730998158540484400,38.561484375,-0.4999021291732788,0.004352286923676729,0.01046075951308012
1730998158573817300,38.5948173828125,-0.5175403356552124,-0.03130592033267021,0.03527642786502838
1730998158607150300,38.628150390625,-0.5275429487228394,-0.044668205082416534,0.012827792204916477
1730998158640483300,38.6614833984375,-0.49654245376586914,-0.01817270554602146,0.0029778804164379835
1730998158673816300,38.69481640625,-0.4596625566482544,0.027793550863862038,0.004428642801940441
1730998158707149300,38.7281494140625,-0.43408334255218506,0.060244809836149216,-0.023059483617544174
1730998158740482600,38.761482666015624,-0.4175141155719757,0.0456608310341835,-0.02473931387066841
1730998158773815600,38.794815673828126,-0.42400434613227844,-0.030160583555698395,-0.00862821750342846
1730998158807148500,38.8281484375,-0.43499961495399475,-0.05803048983216286,-0.03458922728896141
1730998158840481500,38.8614814453125,-0.4002576768398285,0.018401773646473885,-0.05474718660116196
1730998158873814500,38.894814453125,-0.3805578351020813,-0.0014507622690871358,-0.01252236869186163
1730998158907147500,38.9281474609375,-0.3558185398578644,0.0011453386396169662,0.008322793990373611
1730998158940480500,38.96148046875,-0.3288649022579193,0.018249060958623886,-0.025273805484175682
1730998158973813500,38.9948134765625,-0.30038413405418396,0.07207997888326645,-0.014965757727622986
1730998159007146500,39.028146484375,-0.2803025245666504,0.0492495596408844,-0.01969982497394085
1730998159040479700,39.061479736328124,-0.23174017667770386,0.007330167107284069,0.00862821750342846
1730998159073812700,39.094812744140626,-0.18905723094940186,0.014507622458040714,0.018783552572131157
1730998159107145700,39.12814575195313,-0.14690876007080078,0.03771981969475746,-0.005650337319821119
1730998159140478700,39.16147875976562,-0.11598462611436844,0.05138752609491348,0.005268557462841272
1730998159173811700,39.19481176757812,-0.10666920244693756,0.025350160896778107,-0.01794363744556904
1730998159207144700,39.228144775390625,-0.09628479927778244,-0.0198525357991457,0.04092676565051079
1730998159240477700,39.26147778320313,-0.0856713280081749,-0.0034360159188508987,0.00786465872079134
1730998159273810700,39.29481079101563,-0.07276718318462372,-0.011453386396169662,0.006108472589403391
1730998159307143700,39.32814379882812,-0.06818582862615585,0.010308047756552696,-0.018554486334323883
1730998159340477000,39.361476806640624,-0.0626882016658783,-0.036727190017700195,0.00916270911693573
1730998159373810000,39.394809814453126,-0.06100837141275406,-0.04856235533952713,0.015042114071547985
1730998159407143000,39.42814282226563,-0.05474718660116196,-0.031229566782712936,-0.026190076023340225
1730998159440476000,39.46147583007812,-0.03901786729693413,0.04650074616074562,-0.02748812735080719
1730998159473809000,39.49480883789062,-0.010002624243497849,0.009620844386518002,-0.016034740954637527
1730998159507142000,39.528141845703125,0.024128466844558716,-0.01382041908800602,0.009544488042593002
1730998159540475000,39.56147485351563,0.06032116711139679,-0.04146125912666321,-0.02298312820494175
1730998159573807900,39.59480786132813,0.10094250738620758,0.033596597611904144,0.023059483617544174
1730998159607140900,39.62814086914062,0.12239851802587509,0.05757235363125801,-0.037567105144262314
1730998159640474000,39.66147412109375,0.13316470384597778,-0.01175880990922451,-0.010995250195264816
1730998159673807000,39.69480712890625,0.13453911244869232,-0.06788039952516556,0.07574506103992462
1730998159707140000,39.72814013671875,0.13347013294696808,-0.006032116711139679,0.007482878863811493
1730998159740473000,39.76147314453125,0.13988402485847473,0.053143709897994995,-0.03268032893538475
1730998159773806000,39.79480615234375,0.15187190473079681,0.008017370477318764,-0.008093725889921188
1730998159807139000,39.82813916015625,0.15423893928527832,-0.027869906276464462,0.004657710436731577
1730998159840472000,39.86147216796875,0.15286453068256378,-0.024128466844558716,0.028557108715176582
1730998159873805000,39.89480517578125,0.15118469297885895,0.007101099472492933,0.02229592576622963
