time,seconds_elapsed,z,y,x
1729114499696945200,0.025945068359375,0,0,0
1729114499734879500,0.06387939453125,-0.11012935638427734,0.00960531085729599,-0.011992081999778748
1729114499772813600,0.1018134765625,0.054106712341308594,-0.0200066938996315,-0.013427585363388062
1729114499810748000,0.139747802734375,-0.05437946319580078,0.005426712334156036,-0.01433117687702179
1729114499848682000,0.177681884765625,0.046550750732421875,0.0032052695751190186,-0.0043560415506362915
1729114499886616300,0.2156162109375,-0.04940509796142578,0.009305082261562347,-0.012960061430931091
1729114499924550400,0.25355029296875,0.03609466552734375,0.0028683319687843323,-0.0007904767990112305
1729114499962484500,0.291484375,-0.02856731414794922,0.00003698468208312988,-0.012974992394447327
1729114500000418800,0.329418701171875,0.013100624084472656,0.00012529641389846802,0.00815504789352417
1729114500038353000,0.367352783203125,-0.027629852294921875,0.009586416184902191,-0.0008289813995361328
1729114500076287200,0.405287353515625,0.017060279846191406,0.002321958541870117,-0.002788916230201721
1729114500114221300,0.44322119140625,-0.013926506042480469,0.0025014057755470276,0.006516367197036743
1729114500152155600,0.48115576171875,0.0036554336547851562,-0.0023459941148757935,0.0018780231475830078
1729114500190089700,0.51908984375,-0.009677886962890625,-0.0001316070556640625,0.008526429533958435
1729114500228023800,0.55702392578125,-0.009261131286621094,-0.006720326840877533,-0.003992319107055664
1729114500265958100,0.594958251953125,-0.022330284118652344,0.00048276782035827637,-0.011012762784957886
1729114500303892200,0.632892333984375,0.015003204345703125,-0.0042923614382743835,-0.008103340864181519
1729114500341826600,0.67082666015625,0.0028324127197265625,-0.006034977734088898,-0.012819439172744751
1729114500379760600,0.7087607421875,-0.0037527084350585938,-0.005328260362148285,-0.00042141973972320557
1729114500417695000,0.746695068359375,0.0007944107055664062,0.004371225833892822,-0.003038257360458374
1729114500455629000,0.784629150390625,0.0028448104858398438,-0.00446387380361557,0.010547660291194916
1729114500493563100,0.822563232421875,-0.0036191940307617188,-0.0012731105089187622,0.005742400884628296
1729114500531497500,0.86049755859375,0.0035552978515625,-0.0016870200634002686,0.010089151561260223
1729114500569431600,0.898431640625,0.0054340362548828125,0.007191285490989685,-0.0022200793027877808
1729114500607366000,0.936365966796875,-0.01035308837890625,-0.002553194761276245,-0.013828486204147339
1729114500645300000,0.974300048828125,-0.000820159912109375,0.0044570192694664,-0.001046210527420044
1729114500683234300,1.012234375,0.014593124389648438,0.003652036190032959,-0.009264126420021057
1729114500721168400,1.05016845703125,-0.010850906372070312,0.0010731518268585205,0.011172853410243988
1729114500759102500,1.0881025390625,0.010043144226074219,-0.0028821080923080444,0.00012680888175964355
1729114500797036800,1.126036865234375,-0.004609107971191406,-0.004652835428714752,0.009014852344989777
1729114500834971000,1.163970947265625,0.0022935867309570312,0.0025580227375030518,0.018679559230804443
1729114500872905200,1.2019052734375,-0.011646270751953125,-0.004197023808956146,-0.002723485231399536
1729114500910839300,1.23983935546875,0.005818367004394531,-0.0042100101709365845,0.0000254213809967041
1729114500948773400,1.2777734375,-0.009884834289550781,0.007746577262878418,0.005258232355117798
1729114500986707700,1.315707763671875,-0.0024089813232421875,0.0052232518792152405,0.010033376514911652
1729114501024641800,1.353641845703125,0.006394386291503906,0.009696409106254578,0.014436349272727966
1729114501062576000,1.391576171875,-0.016280174255371094,0.009102463722229004,0.009319357573986053
1729114501100510200,1.42951025390625,0.012108802795410156,-0.0027575120329856873,0.007016897201538086
1729114501138444500,1.467444580078125,-0.0052776336669921875,0.002389058470726013,-0.003847286105155945
1729114501176378600,1.505378662109375,0.0024538040161132812,0.0024138614535331726,-0.0010405182838439941
1729114501214312700,1.543312744140625,0.003947257995605469,0.0065803006291389465,0.015656009316444397
1729114501252247000,1.5812470703125,0.0036468505859375,-0.00028620660305023193,-0.007763877511024475
1729114501290181000,1.61918115234375,-0.009936332702636719,-0.0022400766611099243,0.0013631731271743774
1729114501328115500,1.657115478515625,0.0020656585693359375,0.002167217433452606,0.001588389277458191
1729114501366049500,1.695049560546875,-0.00104522705078125,-0.0003124251961708069,0.013569958508014679
1729114501403983600,1.732983642578125,0.0013265609741210938,0.002369530498981476,0.001312851905822754
1729114501441918000,1.77091796875,0.007212638854980469,-0.006541244685649872,-0.005628123879432678
1729114501479852000,1.80885205078125,-0.0021076202392578125,-0.003943689167499542,-0.005286678671836853
1729114501517786400,1.846786376953125,-0.004387855529785156,-0.0015037506818771362,0.0015076547861099243
1729114501555720400,1.884720458984375,0.00022792816162109375,0.0030769258737564087,-0.007443517446517944
1729114501593654500,1.922654541015625,-0.0129852294921875,-0.0174766406416893,0.0037502795457839966
1729114501631588900,1.9605888671875,0.012660980224609375,0.0011378154158592224,0.0077159106731414795
1729114501669523000,1.99852294921875,-0.008681297302246094,-0.0017248690128326416,-0.00004589557647705078
1729114501707457300,2.036457275390625,-0.007871627807617188,0.005625084042549133,0.005613952875137329
1729114501745391400,2.074391357421875,-0.0007381439208984375,-0.0015127286314964294,-0.0172693133354187
1729114501783325700,2.11232568359375,0.005620002746582031,-0.003949776291847229,0.015856683254241943
1729114501821259800,2.150259765625,-0.012701034545898438,0.0073103830218315125,0.001939728856086731
1729114501859193900,2.18819384765625,-0.0026617050170898438,0.0030140429735183716,0.013417162001132965
1729114501897128200,2.226128173828125,-0.00023555755615234375,0.007606431841850281,0.006130814552307129
1729114501935062300,2.264062255859375,-0.002349853515625,-0.001970939338207245,-0.00292399525642395
1729114501972996600,2.30199658203125,-0.0044841766357421875,0.009699560701847076,-0.007900193333625793
1729114502010930700,2.3399306640625,0.020748138427734375,-0.00048491358757019043,0.0033624768257141113
1729114502048865000,2.377864990234375,-0.016542434692382812,0.003787614405155182,-0.010580644011497498
1729114502086799000,2.415799072265625,0.0052165985107421875,0.0014090538024902344,-0.010706126689910889
1729114502124733200,2.453733154296875,-0.0022554397583007812,-0.0013102367520332336,0.0007420182228088379
1729114502162667500,2.49166748046875,0.009545326232910156,-0.008033104240894318,-0.0012467056512832642
1729114502200601600,2.5296015625,0.006758689880371094,-0.00821947306394577,0.005876660346984863
1729114502238536000,2.567535888671875,-0.0086669921875,0.008534848690032959,-0.008705288171768188
1729114502276470000,2.605469970703125,-0.006976127624511719,0.009806901216506958,0.019347652792930603
1729114502314404400,2.643404296875,-0.0065975189208984375,-0.0016186684370040894,0.00027173757553100586
1729114502352338400,2.68133837890625,0.010443687438964844,-0.009925998747348785,0.011708788573741913
1729114502390272500,2.7192724609375,0.00002384185791015625,-0.005027048289775848,0.0063757747411727905
1729114502428206800,2.757206787109375,0.00027370452880859375,-0.0022897571325302124,-0.00037769973278045654
1729114502466141000,2.795140869140625,-0.003902435302734375,0.008711419999599457,0.0014081001281738281
1729114502504075300,2.8330751953125,-0.005492210388183594,0.0015378296375274658,0.0033949613571166992
1729114502542009300,2.87100927734375,0.0012559890747070312,0.008474603295326233,0.01945989578962326
1729114502579943400,2.908943359375,0.008028984069824219,0.005843833088874817,0.010171614587306976
1729114502617877800,2.946877685546875,-0.008667945861816406,-0.0010296031832695007,-0.0039968788623809814
1729114502655811800,2.984811767578125,-0.0010728836059570312,-0.014346033334732056,-0.0058588385581970215
1729114502693746200,3.02274609375,-0.0033464431762695312,-0.01362656056880951,-0.012922301888465881
1729114502731680300,3.06068017578125,0.004425048828125,0.002945229411125183,-0.005381420254707336
1729114502769614300,3.0986142578125,0.014497756958007812,-0.0022277534008026123,-0.0006889849901199341
1729114502807548700,3.136548583984375,0.005518913269042969,0.00004521012306213379,-0.006280615925788879
1729114502845482800,3.174482666015625,0.001026153564453125,0.0018584206700325012,0.005702376365661621
1729114502883417000,3.2124169921875,0.00493621826171875,-0.006990246474742889,-0.012667059898376465
1729114502921351200,3.25035107421875,0.0025157928466796875,-0.002531670033931732,-0.001247122883796692
1729114502959285200,3.28828515625,0.0067653656005859375,-0.016413912177085876,-0.008155331015586853
1729114502997219600,3.326219482421875,-0.0026330947875976562,-0.011599451303482056,-0.009033247828483582
1729114503035153700,3.364153564453125,0.007197380065917969,-0.004287749528884888,-0.002023071050643921
1729114503073088000,3.402087890625,0.00202178955078125,0.0004964768886566162,0.009763173758983612
1729114503111022000,3.44002197265625,-0.0071163177490234375,-0.003794647753238678,-0.0039434731006622314
1729114503148956400,3.477956298828125,0.01865100860595703,-0.003245152533054352,-0.010906532406806946
1729114503186890500,3.515890380859375,-0.0027074813842773438,-0.007122993469238281,-0.005934655666351318
1729114503224824600,3.553824462890625,0.0019807815551757812,-0.000024087727069854736,-0.010792151093482971
1729114503262759000,3.591759033203125,-0.007274627685546875,0.000027470290660858154,-0.007877841591835022
1729114503300693000,3.62969287109375,0.005573272705078125,-0.004950098693370819,-0.014950305223464966
1729114503338627300,3.66762744140625,-0.0021839141845703125,0.004679836332798004,0.006249651312828064
1729114503376561400,3.7055615234375,-0.001194000244140625,0.00937344878911972,-0.0026888996362686157
1729114503414495700,3.743495849609375,0.01036834716796875,-0.013950876891613007,-0.00229431688785553
1729114503452429800,3.781429931640625,-0.00783538818359375,0.018250063061714172,-0.002410590648651123
1729114503490364000,3.819364013671875,0.0009241104125976562,-0.001125819981098175,-0.0018952041864395142
1729114503528298200,3.85729833984375,0.0063495635986328125,-0.0034638866782188416,0.002451777458190918
1729114503566232300,3.895232421875,0.0012683868408203125,-0.0036884695291519165,-0.0026011765003204346
1729114503604166700,3.933166748046875,-0.0035142898559570312,0.0007377117872238159,0.005920812487602234
1729114503642100700,3.971100830078125,0.0013885498046875,0.000807546079158783,-0.017237544059753418
1729114503680034800,4.009034912109375,0.0037517547607421875,-0.004408702254295349,0.001017257571220398
1729114503717969200,4.04696923828125,0.0038480758666992188,-0.00917217880487442,-0.0036650896072387695
1729114503755903200,4.0849033203125,0.0038099288940429688,-0.013568639755249023,-0.008999615907669067
1729114503793837600,4.122837646484375,-0.0026330947875976562,-0.0018935799598693848,-0.026929765939712524
1729114503831771600,4.160771728515625,0.0019216537475585938,-0.0019126608967781067,-0.003484070301055908
1729114503869705700,4.198705810546875,0.008748054504394531,-0.002072438597679138,0.007879674434661865
1729114503907640000,4.23664013671875,0.0036554336547851562,-0.0045976340770721436,-0.0018099993467330933
1729114503945574100,4.27457421875,-0.020481109619140625,-0.0013225600123405457,-0.0069564878940582275
1729114503983508500,4.312508544921875,0.02820873260498047,-0.0016859248280525208,0.009065352380275726
1729114504021442600,4.350442626953125,-0.011895179748535156,-0.01052907109260559,-0.011316373944282532
1729114504059377000,4.388376953125,-0.0018157958984375,-0.007988333702087402,0.005389153957366943
1729114504097311000,4.42631103515625,-0.0002346038818359375,-0.005327753722667694,-0.0019125938415527344
1729114504135245000,4.4642451171875,-0.009129524230957031,0.01337684690952301,-0.004033416509628296
1729114504173179400,4.502179443359375,0.013087272644042969,-0.003608427941799164,-0.01131458580493927
1729114504211113500,4.540113525390625,-0.0027723312377929688,-0.0011485368013381958,0.0015384703874588013
1729114504249047800,4.5780478515625,0.008330345153808594,0.0009011030197143555,-0.0014252662658691406
1729114504286982000,4.61598193359375,0.0041656494140625,0.0031994953751564026,0.014757052063941956
1729114504324916200,4.653916259765625,0.008112907409667969,-0.006288416683673859,0.0006949007511138916
1729114504362850300,4.691850341796875,-0.012234687805175781,0.007637694478034973,0.009377963840961456
1729114504400784400,4.729784423828125,0.015590667724609375,-0.009360745549201965,-0.0024660825729370117
1729114504438718700,4.76771875,-0.01950550079345703,-0.00012801587581634521,-0.00001531839370727539
1729114504476652800,4.80565283203125,-0.0052127838134765625,0.004822894930839539,0.016503959894180298
1729114504514587000,4.8435869140625,0.013314247131347656,-0.0048304349184036255,-0.008584216237068176
1729114504552521200,4.881521240234375,-0.007719993591308594,-0.0017544850707054138,0.0030973702669143677
1729114504590455300,4.919455322265625,0.0035409927368164062,0.009408235549926758,0.01022859662771225
1729114504628389600,4.9573896484375,-0.010155677795410156,-0.0025112852454185486,-0.008671686053276062
1729114504666323700,4.99532373046875,-0.002777099609375,-0.006964877247810364,-0.008575081825256348
1729114504704258000,5.033258056640625,0.0058135986328125,-0.009556405246257782,-0.010479405522346497
1729114504742192000,5.071192138671875,-0.0010938644409179688,0.004585295915603638,-0.001022040843963623
1729114504780126200,5.109126220703125,0.012212753295898438,-0.007174097001552582,-0.008143097162246704
1729114504818060500,5.147060546875,-0.0059413909912109375,-0.004098817706108093,-0.008693858981132507
1729114504855994600,5.18499462890625,0.0034933090209960938,0.0032847151160240173,0.005111962556838989
1729114504893929000,5.222928955078125,-0.004172325134277344,-0.008559107780456543,-0.00179271399974823
1729114504931863000,5.260863037109375,-0.0034723281860351562,0.002982892096042633,0.007499203085899353
1729114504969797400,5.29879736328125,0.0031833648681640625,-0.006598584353923798,0.005364477634429932
1729114505007731500,5.3367314453125,0.008114814758300781,0.0010244324803352356,-0.0038239210844039917
1729114505045665500,5.37466552734375,0.0017108917236328125,-0.012508407235145569,0.0031844526529312134
1729114505083600000,5.412599853515625,-0.00412750244140625,-0.005339890718460083,0.0010257810354232788
1729114505121534000,5.450533935546875,0.014910697937011719,-0.010505087673664093,-0.008097976446151733
1729114505159468300,5.48846826171875,-0.0081787109375,-0.0009363368153572083,0.005645588040351868
1729114505197402400,5.52640234375,0.00112152099609375,-0.0008126795291900635,0.005120724439620972
1729114505235336400,5.56433642578125,-0.0005064010620117188,0.0015612319111824036,-0.0070497095584869385
1729114505273270800,5.602270751953125,0.012485504150390625,-0.0012181773781776428,0.0022212713956832886
1729114505311204900,5.640204833984375,-0.0245361328125,0.0018348246812820435,-0.00422726571559906
1729114505349139000,5.678138916015625,0.0037403106689453125,0.008854493498802185,-0.003815382719039917
1729114505387073300,5.7160732421875,-0.0013103485107421875,-0.0048742517828941345,-0.0016729682683944702
1729114505425007400,5.75400732421875,0.0017194747924804688,-0.004791975021362305,0.011920802295207977
1729114505462941700,5.791941650390625,-0.007132530212402344,0.00016874074935913086,0.00003160536289215088
1729114505500875800,5.829875732421875,-0.000080108642578125,0.009112946689128876,0.016451910138130188
1729114505538810000,5.86781005859375,0.006333351135253906,-0.007283911108970642,-0.016137778759002686
1729114505576744200,5.905744140625,-0.00025177001953125,0.010503321886062622,-0.006918922066688538
1729114505614678300,5.94367822265625,0.011081695556640625,-0.008074745535850525,0.0026823580265045166
1729114505652612600,5.981612548828125,-0.005062103271484375,0.005670651793479919,0.005322620272636414
1729114505690546700,6.019546630859375,-0.0051422119140625,0.010367974638938904,0.021892674267292023
1729114505728481000,6.05748095703125,-0.0034570693969726562,0.007646016776561737,0.009553946554660797
1729114505766415000,6.0954150390625,-0.0008211135864257812,0.0009471103549003601,-0.009370163083076477
1729114505804349400,6.133349365234375,0.0012769699096679688,0.005771033465862274,0.011807881295681
1729114505842283500,6.171283447265625,-0.010043144226074219,-0.005254633724689484,0.0028340965509414673
1729114505880217600,6.209217529296875,0.02382659912109375,-0.0005196556448936462,-0.00655268132686615
1729114505918152000,6.24715185546875,-0.01806640625,-0.0027042552828788757,-0.006407126784324646
1729114505956086000,6.2850859375,0.00637054443359375,-0.0010140538215637207,-0.01582147181034088
1729114505994020000,6.32302001953125,-0.00399017333984375,-0.0037357062101364136,-0.004914283752441406
1729114506031954400,6.360954345703125,0.000461578369140625,0.005240388214588165,0.0074568986892700195
1729114506069888500,6.398888427734375,-0.0033626556396484375,0.0025731176137924194,-0.00629638135433197
1729114506107822800,6.43682275390625,0.0012722015380859375,0.0001866370439529419,-0.006417036056518555
1729114506145757000,6.4747568359375,0.005406379699707031,-0.011375613510608673,-0.016218557953834534
1729114506183691300,6.512691162109375,0.011979103088378906,-0.006218768656253815,-0.002179160714149475
1729114506221625300,6.550625244140625,-0.004263877868652344,-0.0021371990442276,-0.00901658833026886
1729114506259559400,6.588559326171875,-0.00003337860107421875,-0.0021356046199798584,-0.004559129476547241
1729114506297493800,6.62649365234375,-0.017742156982421875,-0.001896679401397705,-0.004093527793884277
1729114506335427800,6.664427734375,0.005784034729003906,-0.004298374056816101,0.0008053779602050781
1729114506373362200,6.702362060546875,0.011945724487304688,-0.0065642595291137695,-0.007884398102760315
1729114506411296300,6.740296142578125,0.014551162719726562,-0.013079844415187836,-0.016873091459274292
1729114506449230600,6.778230712890625,-0.0024690628051757812,-0.005470842123031616,0.0022476911544799805
1729114506487164700,6.81616455078125,0.004451751708984375,0.013249926269054413,0.01343255490064621
1729114506525098800,6.8540986328125,0.0010814666748046875,0.008218638598918915,0.017357811331748962
1729114506563033000,6.892033203125,-0.0075778961181640625,0.0033945664763450623,0.007770374417304993
1729114506600967200,6.92996728515625,-0.005375862121582031,0.0011872276663780212,0.000603020191192627
1729114506638901500,6.967901611328125,0.0024890899658203125,-0.007693193852901459,-0.008269965648651123
1729114506676835600,7.005835693359375,0.0025968551635742188,0.006115585565567017,0.003014698624610901
1729114506714769700,7.043769775390625,-0.009615898132324219,0.003483705222606659,0.00513969361782074
1729114506752704000,7.0817041015625,0.01591777801513672,-0.001127488911151886,0.01220596581697464
1729114506790638000,7.11963818359375,-0.009918212890625,0.007963813841342926,0.012310199439525604
1729114506828572400,7.157572509765625,0.015771865844726562,-0.008190624415874481,0.0001538097858428955
1729114506866506500,7.195506591796875,-0.007412910461425781,0.010435499250888824,0.00008764863014221191
1729114506904440600,7.233440673828125,-0.0009584426879882812,-0.00019323080778121948,-0.0017547607421875
1729114506942375000,7.271375,-0.004626274108886719,-0.0021573156118392944,-0.00360107421875
1729114506980309000,7.30930908203125,0.006804466247558594,0.0073815882205963135,0.0027517229318618774
1729114507018243300,7.347243408203125,-0.0068683624267578125,-0.0019314363598823547,-0.0017597228288650513
1729114507056177400,7.385177490234375,0.0039234161376953125,0.00006204098463058472,-0.009042784571647644
1729114507094111700,7.42311181640625,0.0014886856079101562,-0.0019452869892120361,0.0010846257209777832
1729114507132045800,7.4610458984375,-0.0009326934814453125,0.007458850741386414,-0.00497707724571228
1729114507169980000,7.49897998046875,-0.0018358230590820312,-0.009049557149410248,-0.019552379846572876
1729114507207914200,7.536914306640625,0.0057735443115234375,-0.009058840572834015,-0.0016490668058395386
1729114507245848300,7.574848388671875,0.0060272216796875,0.0026131868362426758,0.002913549542427063
1729114507283782700,7.61278271484375,-0.010829925537109375,0.002339467406272888,-0.007087409496307373
1729114507321716700,7.650716796875,-0.00551605224609375,-0.009083658456802368,-0.0027099549770355225
1729114507359650800,7.68865087890625,-0.00039768218994140625,0.005094259977340698,0.002076670527458191
1729114507397585200,7.726585205078125,-0.009650230407714844,0.005171686410903931,0.014375105500221252
1729114507435519200,7.764519287109375,-0.006974220275878906,-0.0015454068779945374,-0.0019167810678482056
1729114507473453600,7.80245361328125,0.006970405578613281,-0.010807245969772339,-0.0022509098052978516
1729114507511387600,7.8403876953125,-0.011870384216308594,0.0013876110315322876,-0.0045571476221084595
1729114507549321700,7.87832177734375,-0.00443267822265625,-0.00279853492975235,-0.01376459002494812
1729114507587256000,7.916256103515625,0.018030166625976562,0.003895305097103119,-0.004266589879989624
1729114507625190100,7.954190185546875,0.006411552429199219,0.005592659115791321,0.00017939507961273193
1729114507663124500,7.99212451171875,-0.0035753250122070312,-0.0011852681636810303,0.00039853155612945557
1729114507701058600,8.03005859375,-0.019397735595703125,0.0030851364135742188,0.00915130227804184
1729114507738993000,8.067992919921876,-0.007251739501953125,-0.003315053880214691,-0.01386040449142456
1729114507776927000,8.105927001953125,0.006846427917480469,0.0073418766260147095,-0.011755615472793579
1729114507814861000,8.143861083984374,-0.009218215942382812,-0.0040203481912612915,0.002552434802055359
1729114507852795400,8.18179541015625,-0.0004329681396484375,0.005192480981349945,0.0019719302654266357
1729114507890729500,8.2197294921875,-0.008677482604980469,-0.0064119696617126465,-0.004323169589042664
1729114507928663800,8.257663818359376,0.010097503662109375,0.0004414021968841553,0.0027448534965515137
1729114507966598000,8.295597900390625,-0.004309654235839844,-0.0019875988364219666,0.002782866358757019
1729114508004532000,8.333531982421874,0.028051376342773438,0.0016385763883590698,-0.008687913417816162
1729114508042466300,8.37146630859375,0.014809608459472656,0.37412360310554504,-0.017822399735450745
1729114508080400400,8.409400390625,0.03527355194091797,0.6818227767944336,-0.034628331661224365
1729114508118334700,8.447334716796876,-0.056957244873046875,0.9823099374771118,0.4182993173599243
1729114508156268800,8.485268798828125,-0.09368610382080078,1.0118671655654907,0.11410824954509735
1729114508194203100,8.523203125,-0.19535255432128906,0.9611959457397461,-0.06618746370077133
1729114508232137200,8.56113720703125,-0.1863718032836914,1.2102971076965332,0.08698038756847382
1729114508270071300,8.5990712890625,0.04418659210205078,1.1537601947784424,0.1230349913239479
1729114508308005600,8.637005615234376,-0.21938228607177734,1.1305345296859741,-0.07228267192840576
1729114508345939700,8.674939697265625,-0.06249809265136719,0.9401002526283264,-0.05478788912296295
1729114508383873800,8.712873779296874,0.18826675415039062,1.6560537815093994,0.5018296241760254
1729114508421808000,8.75080810546875,-0.6242961883544922,1.59990394115448,-0.12617379426956177
1729114508459742200,8.7887421875,-0.1626605987548828,0.5915824174880981,-0.5001769661903381
1729114508497676500,8.826676513671876,-0.23230266571044922,0.6397965550422668,-0.001980513334274292
1729114508535610600,8.864610595703125,0.6119575500488281,1.0859920978546143,0.5451417565345764
1729114508573545000,8.902544921875,0.5438909530639648,1.3319283723831177,0.6005547046661377
1729114508611479000,8.94047900390625,-2.252446174621582,1.4562054872512817,-0.42600947618484497
1729114508649413000,8.9784130859375,0.7452716827392578,1.0751234292984009,-0.1702706664800644
1729114508687347500,9.016347412109376,-3.037647247314453,1.6272664070129395,-0.2011561244726181
1729114508725281500,9.054281494140625,1.1777448654174805,0.21654045581817627,-0.2557450532913208
1729114508763216000,9.0922158203125,0.9946088790893555,1.6110831499099731,0.06955189257860184
1729114508801150000,9.13014990234375,-5.44242525100708,2.5097975730895996,-1.068006992340088
1729114508839084300,9.168084228515625,0.8854742050170898,1.664480447769165,2.1345131397247314
1729114508877018400,9.206018310546876,-0.023314476013183594,-0.32002997398376465,0.14987945556640625
1729114508914952400,9.243952392578125,-0.36061859130859375,-0.142234206199646,-0.09880058467388153
1729114508952886800,9.28188671875,0.6638565063476562,0.27928030490875244,-0.13129933178424835
1729114508990820900,9.31982080078125,2.351917266845703,-0.7705007791519165,-0.4778721332550049
1729114509028755200,9.357755126953125,0.3737173080444336,-0.564967930316925,-0.3402724266052246
1729114509066689300,9.395689208984376,0.3714771270751953,-0.9164024591445923,-0.07379169017076492
1729114509104623600,9.43362353515625,-0.4351482391357422,-2.2186875343322754,-0.39607399702072144
1729114509142557700,9.4715576171875,0.22449588775634766,-1.1987158060073853,-0.5562854409217834
1729114509180491800,9.50949169921875,-1.3624553680419922,-1.5719568729400635,-0.6659281253814697
1729114509218426000,9.547426025390624,-1.24725341796875,-1.673097014427185,-0.7349560856819153
1729114509256360200,9.585360107421875,1.7183103561401367,-1.7108497619628906,-0.7623969912528992
1729114509294294300,9.623294189453125,-3.34136962890625,-1.6367464065551758,-0.22343546152114868
1729114509332228600,9.661228515625,3.1386642456054688,-0.8868173360824585,-0.255174458026886
1729114509370162700,9.69916259765625,-5.243274211883545,-1.3918331861495972,-1.3569622039794922
1729114509408097000,9.737096923828124,0.5516986846923828,-2.3128130435943604,-0.11465470492839813
1729114509446031000,9.775031005859375,1.3380861282348633,-1.8148423433303833,-0.007577106356620789
1729114509483965400,9.81296533203125,-2.092391014099121,-1.3634190559387207,-0.24439917504787445
1729114509521899500,9.8508994140625,1.4568243026733398,-0.03402811288833618,-0.44095441699028015
1729114509559833600,9.88883349609375,0.04420948028564453,0.01428842544555664,-0.6482152938842773
1729114509597768000,9.926767822265624,-2.8078441619873047,-0.19388121366500854,-0.8755418658256531
1729114509635702000,9.964701904296875,0.64520263671875,-0.16256779432296753,0.1539032906293869
1729114509673636400,10.00263623046875,0.871983528137207,-1.0196285247802734,-0.5173478126525879
1729114509711570400,10.0405703125,-5.936663627624512,-0.8193667531013489,-0.5028516054153442
1729114509749504800,10.0785048828125,-3.283663272857666,-0.610062837600708,-0.9398349523544312
1729114509787438800,10.11643896484375,-0.33342552185058594,-0.9484072923660278,-0.6265603303909302
1729114509825373000,10.154373046875,0.8707170486450195,-0.38972610235214233,0.7975409030914307
1729114509863307300,10.192307373046875,-3.7696533203125,-0.43393176794052124,-0.10567906498908997
1729114509901241300,10.230241455078126,-2.589531898498535,-0.8501517176628113,-0.3084796071052551
1729114509939175700,10.26817578125,-3.030360221862793,0.3315730690956116,0.46429967880249023
1729114509977109800,10.30610986328125,0.6593055725097656,-1.1835955381393433,0.26716527342796326
1729114510015043800,10.3440439453125,3.906174659729004,-1.139877200126648,-0.16730009019374847
1729114510052978200,10.381978271484375,-3.094470977783203,0.02158200740814209,0.043330952525138855
1729114510090912300,10.419912353515626,3.312472343444824,-0.5935145616531372,-0.14072054624557495
1729114510128846600,10.4578466796875,-0.6596899032592773,-0.5553016662597656,0.8352725505828857
1729114510166780700,10.49578076171875,-0.2987041473388672,-0.646896243095398,-0.8696505427360535
1729114510204715000,10.533715087890625,-0.4855012893676758,-1.423377275466919,0.12727774679660797
1729114510242649000,10.571649169921875,0.35854053497314453,-1.046581745147705,0.32036271691322327
1729114510280583200,10.609583251953126,-4.104076862335205,-0.6517460346221924,-0.3476950526237488
1729114510318517500,10.647517578125,-1.2214622497558594,-0.1547277569770813,-0.3525199592113495
1729114510356451600,10.68545166015625,2.3639535903930664,-0.5725824236869812,0.3648478388786316
1729114510394386000,10.723385986328125,-0.7503767013549805,-0.6761042475700378,-0.04134480655193329
1729114510432320000,10.761320068359375,0.19986534118652344,-1.895511507987976,0.11885000765323639
1729114510470254300,10.79925439453125,-1.255925178527832,-0.5037193298339844,0.970177412033081
1729114510508188400,10.8371884765625,2.249908447265625,-0.4576180577278137,0.27364760637283325
1729114510546122500,10.87512255859375,1.2300529479980469,-0.31887438893318176,0.7832973599433899
1729114510584056800,10.913056884765625,0.7050447463989258,-0.5638272762298584,-0.40172725915908813
1729114510621991000,10.950990966796875,-2.572267532348633,-0.5827951431274414,-0.6595468521118164
1729114510659925200,10.98892529296875,-0.23982620239257812,-1.007641315460205,0.7081623077392578
1729114510697859300,11.026859375,1.5217761993408203,-0.8159708976745605,-0.12212517857551575
1729114510735793400,11.06479345703125,0.9383468627929688,-0.614956259727478,-0.5671826004981995
1729114510773727700,11.102727783203125,1.470571517944336,-0.3151368200778961,1.4633578062057495
1729114510811661800,11.140661865234375,-1.3632011413574219,0.029034852981567383,0.049969762563705444
1729114510849596200,11.17859619140625,-1.342799186706543,-0.9773494005203247,-0.08357665687799454
1729114510887530200,11.2165302734375,1.1600055694580078,-0.5440855026245117,1.0510997772216797
1729114510925464300,11.25446435546875,-0.5855960845947266,-0.2737293839454651,0.2830170691013336
1729114510963398700,11.292398681640625,2.4705686569213867,-0.8895715475082397,0.4096542000770569
1729114511001332700,11.330332763671874,1.1545228958129883,-0.2946529984474182,0.6156837344169617
1729114511039267000,11.36826708984375,-0.061387062072753906,-0.5164398550987244,0.4798927903175354
1729114511077201200,11.406201171875,-0.3579721450805664,-0.8027944564819336,0.03282606601715088
1729114511115135500,11.444135498046874,-0.40674686431884766,-0.2768040895462036,0.6484721899032593
1729114511153069600,11.482069580078125,0.8157501220703125,-0.23861178755760193,0.28276321291923523
1729114511191003600,11.520003662109374,-0.19806289672851562,0.16275811195373535,0.41596561670303345
1729114511228938000,11.55793798828125,0.6599645614624023,-1.3749219179153442,-0.5561683773994446
1729114511266872000,11.5958720703125,-1.276601791381836,-1.7484734058380127,-0.5180624723434448
1729114511304806400,11.633806396484376,-1.399428367614746,-1.4733233451843262,0.203790545463562
1729114511342740500,11.671740478515625,0.09986686706542969,-1.4632258415222168,-0.3170788586139679
1729114511380674800,11.7096748046875,0.9991474151611328,-2.0485963821411133,-0.07435400038957596
1729114511418609000,11.74760888671875,0.6324577331542969,-2.034813404083252,-0.04338570684194565
1729114511456543000,11.78554296875,0.798797607421875,-2.293309211730957,-0.283201664686203
1729114511494477300,11.823477294921876,0.6103010177612305,-2.4568328857421875,-0.2124871462583542
1729114511532411400,11.861411376953125,0.1160421371459961,-2.0501606464385986,-0.20106346905231476
1729114511570345700,11.899345703125,0.6638622283935547,-2.425724983215332,-0.4426456391811371
1729114511608279800,11.93727978515625,-1.5920486450195312,-2.185534715652466,-0.3149109184741974
1729114511646214100,11.975214111328125,1.1497163772583008,-2.78511118888855,0.02534124255180359
1729114511684148200,12.013148193359376,-0.29244327545166016,-2.1516034603118896,0.6330243945121765
1729114511722082300,12.051082275390625,-1.5913429260253906,-2.1186749935150146,0.508156955242157
1729114511760016600,12.0890166015625,0.7984609603881836,-3.2023122310638428,-0.013761356472969055
1729114511797950700,12.12695068359375,0.37033557891845703,-2.401797294616699,0.04684548079967499
1729114511835885000,12.164885009765625,-0.42359352111816406,-1.9192895889282227,-0.3810507655143738
1729114511873819100,12.202819091796876,1.0039148330688477,-2.272143840789795,0.29788559675216675
1729114511911753200,12.240753173828125,-0.924220085144043,-1.4949562549591064,-0.2925735116004944
1729114511949687600,12.2786875,0.5974197387695312,-1.5262916088104248,0.17071467638015747
1729114511987621600,12.31662158203125,-0.5533361434936523,-1.730718970298767,-0.2993817925453186
1729114512025556000,12.354555908203125,0.5828847885131836,-1.9179654121398926,-0.03480648994445801
1729114512063490000,12.392489990234376,-0.5164051055908203,-1.719157338142395,0.11870978027582169
1729114512101424400,12.43042431640625,0.4827547073364258,-1.884296178817749,-0.0036931484937667847
1729114512139358500,12.4683583984375,-0.3604450225830078,-1.4615693092346191,-0.11227007210254669
1729114512177292500,12.50629248046875,0.2141132354736328,-1.0518250465393066,0.15628181397914886
1729114512215227000,12.544226806640625,-0.1273956298828125,-0.7133852243423462,-0.18468227982521057
1729114512253161000,12.582160888671876,0.13892078399658203,-0.3138142228126526,-0.08053953945636749
1729114512291095300,12.62009521484375,-0.023789405822753906,0.09383037686347961,-0.09696356952190399
1729114512329029400,12.658029296875,0.08484268188476562,0.3380414843559265,-0.2567914128303528
1729114512366963700,12.695963623046875,-0.018758773803710938,0.5180421471595764,-0.2398516684770584
1729114512404897800,12.733897705078125,0.015867233276367188,0.555864691734314,-0.1603432297706604
1729114512442832000,12.771831787109376,-0.12042617797851562,0.7658039331436157,0.2887731194496155
1729114512480766200,12.80976611328125,0.1083059310913086,0.7073826789855957,0.7286562919616699
1729114512518700300,12.8477001953125,-0.2711782455444336,0.5956830978393555,-0.35695457458496094
1729114512556634600,12.885634521484375,0.04760169982910156,0.42385339736938477,-0.06557300686836243
1729114512594568700,12.923568603515625,-0.0479278564453125,0.3398381173610687,0.10933267325162888
1729114512632503000,12.9615029296875,0.1071319580078125,0.15968561172485352,-0.142730250954628
1729114512670437000,12.99943701171875,-0.04374980926513672,0.11580082774162292,0.019061625003814697
1729114512708371200,13.03737109375,-0.0034666061401367188,0.07327151298522949,-0.051579684019088745
1729114512746305500,13.075305419921875,-0.038410186767578125,0.11173509806394577,0.005178898572921753
1729114512784239600,13.113239501953124,0.0074367523193359375,0.1610838621854782,-0.018671080470085144
1729114512822174000,13.151174072265626,-0.01862049102783203,0.18115884065628052,-0.024184033274650574
1729114512860108000,13.18910791015625,0.014291763305664062,0.16111259162425995,0.0009995102882385254
1729114512898042400,13.22704248046875,-0.017147064208984375,0.12387611716985703,-0.026160717010498047
1729114512935976400,13.2649765625,0.0016689300537109375,0.0945451408624649,-0.0014511346817016602
1729114512973910500,13.30291064453125,-0.005421638488769531,0.08172302693128586,-0.007091701030731201
1729114513011844900,13.340844970703126,-0.011364936828613281,0.06852393597364426,-0.008416801691055298
1729114513049779000,13.378779052734375,0.011598587036132812,0.049808140844106674,-0.004828140139579773
1729114513087713300,13.41671337890625,-0.016138076782226562,0.06217567250132561,0.0507824569940567
1729114513125647400,13.4546474609375,0.0380096435546875,0.02143845707178116,-0.02801513671875
1729114513163581700,13.492581787109375,0.10762882232666016,-0.06209679692983627,-0.017436295747756958
1729114513201515800,13.530515869140626,0.09374046325683594,0.14131788909435272,0.10924267768859863
1729114513239450000,13.5684501953125,0.010146141052246094,-0.08461163938045502,-0.05543394386768341
1729114513277384200,13.60638427734375,0.2986793518066406,0.11371161043643951,0.6514080166816711
1729114513315318300,13.644318359375,-0.07352352142333984,0.22333472967147827,0.9104276299476624
1729114513353252600,13.682252685546874,-0.06470584869384766,0.20927603542804718,0.6597869992256165
1729114513391186700,13.720186767578125,-0.1264781951904297,-0.08738493174314499,0.4722156524658203
1729114513429121000,13.75812109375,0.06550312042236328,-0.015974340960383415,0.47989529371261597
1729114513467055000,13.79605517578125,-0.1603565216064453,-0.201631098985672,0.13955125212669373
1729114513504989400,13.833989501953125,0.0661001205444336,-0.31686729192733765,-0.04045650362968445
1729114513542923500,13.871923583984374,-0.017389297485351562,-0.38038161396980286,-0.3719945549964905
1729114513580857600,13.909857666015625,0.08519935607910156,-0.4751738905906677,-0.2501579523086548
1729114513618792000,13.9477919921875,0.024750709533691406,-0.5270053148269653,-0.6206783056259155
1729114513656726000,13.98572607421875,0.04379558563232422,-0.5679388046264648,-0.6624816060066223
1729114513694660400,14.023660400390625,0.054833412170410156,-0.3491040766239166,-0.42213162779808044
1729114513732594400,14.061594482421874,-0.056056976318359375,-0.4216180443763733,-0.45221230387687683
1729114513770528800,14.09952880859375,0.1769256591796875,-0.30914270877838135,-0.5109574794769287
1729114513808462800,14.137462890625,-0.008559226989746094,-0.11410816013813019,-0.31512072682380676
1729114513846397000,14.17539697265625,-0.0973825454711914,0.0454539954662323,-0.03741009905934334
1729114513884331300,14.213331298828125,0.060425758361816406,-0.019206494092941284,-0.07811464369297028
1729114513922265300,14.251265380859374,0.15068435668945312,-0.10587123036384583,0.15090690553188324
1729114513960199700,14.28919970703125,-0.2205209732055664,-0.01666136085987091,-0.0035942494869232178
1729114513998133800,14.3271337890625,0.14410400390625,-0.07632662355899811,-0.17546211183071136
1729114514036068000,14.365068115234376,0.045477867126464844,-0.1589827537536621,0.04707185551524162
1729114514074002200,14.403002197265625,0.1750640869140625,-0.3426087498664856,-0.3406795263290405
1729114514111936300,14.440936279296874,-0.019791603088378906,-0.11059603095054626,-0.25066477060317993
1729114514149870600,14.47887060546875,-0.0037527084350585938,-0.11617013812065125,-0.1888941079378128
1729114514187804700,14.5168046875,-0.0858621597290039,-0.012441426515579224,-0.4308001399040222
1729114514225739000,14.554739013671876,-0.11938285827636719,-0.1363295614719391,-0.4140550196170807
1729114514263673000,14.592673095703125,0.029644012451171875,0.01610034704208374,-0.019749285653233528
1729114514301607400,14.630607421875,-0.25101470947265625,-0.00690123438835144,-0.4079139232635498
1729114514339541500,14.66854150390625,-0.05211067199707031,0.049034178256988525,-0.12203711271286011
1729114514377475600,14.7064755859375,-0.2504234313964844,-0.02608591318130493,-0.08608855307102203
1729114514415410000,14.744409912109376,0.02002716064453125,0.027196407318115234,-0.19087009131908417
1729114514453344000,14.782343994140625,-0.2273092269897461,-0.03966572880744934,-0.44976112246513367
1729114514491278300,14.8202783203125,0.1626729965209961,-0.2757614552974701,-0.37459680438041687
1729114514529212400,14.85821240234375,-0.1954202651977539,0.006855577230453491,-0.15509359538555145
1729114514567146800,14.896146728515625,0.01858806610107422,0.05998867750167847,-0.03934406489133835
1729114514605080800,14.934080810546876,-0.10199642181396484,0.061664700508117676,-0.24647420644760132
1729114514643015200,14.97201513671875,-0.2338724136352539,-0.11882582306861877,-0.18161019682884216
1729114514680949200,15.00994921875,0.040528297424316406,-0.0641222596168518,-0.15001492202281952
1729114514718883300,15.04788330078125,0.07643985748291016,-0.06505021452903748,0.04015311226248741
1729114514756817700,15.085817626953125,0.34839534759521484,-0.24036264419555664,-0.4211454391479492
1729114514794751700,15.123751708984376,-0.04451560974121094,0.01279759407043457,0.001056566834449768
1729114514832686000,15.16168603515625,-0.0950307846069336,0.11197775602340698,-0.06826601177453995
1729114514870620200,15.1996201171875,-0.06914806365966797,-0.028590142726898193,-0.4884873628616333
1729114514908554500,15.237554443359375,0.10413265228271484,0.12025938928127289,0.2002781331539154
1729114514946488600,15.275488525390625,-0.07189464569091797,0.17856235802173615,-0.07914014160633087
1729114514984422700,15.313422607421876,-0.1780710220336914,-0.010139405727386475,-0.4151659607887268
1729114515022357000,15.35135693359375,0.1454296112060547,-0.2478407919406891,-0.43836358189582825
1729114515060291000,15.389291015625,-0.011041641235351562,-0.18509241938591003,-0.2978071868419647
1729114515098225400,15.427225341796875,-0.10140609741210938,-0.3131583333015442,-0.8130919933319092
1729114515136159500,15.465159423828124,0.08280277252197266,-0.1398826539516449,-0.9339160919189453
1729114515174093800,15.50309375,0.006400108337402344,-0.12307402491569519,-0.8875452876091003
1729114515212028000,15.54102783203125,-0.2377338409423828,0.08147856593132019,-0.45766690373420715
1729114515249962000,15.5789619140625,0.09416866302490234,0.1521831750869751,-0.061726152896881104
1729114515287896300,15.616896240234375,0.08956623077392578,0.1895444691181183,-0.25083786249160767
1729114515325830400,15.654830322265624,0.01898479461669922,0.291420042514801,0.06590110063552856
1729114515363764700,15.6927646484375,-0.025541305541992188,0.3325875401496887,0.3440995216369629
1729114515401698800,15.73069873046875,0.05947589874267578,0.28604114055633545,0.08126789331436157
1729114515439633200,15.768633056640626,-0.0265655517578125,0.2577158510684967,0.19799602031707764
1729114515477567200,15.806567138671875,0.0046939849853515625,0.1808006912469864,0.11298973858356476
1729114515515501600,15.84450146484375,-0.007852554321289062,0.09388674050569534,0.12365373969078064
1729114515553435600,15.882435546875,0.01837921142578125,0.07744663208723068,0.09703102707862854
1729114515591369700,15.92036962890625,0.018034934997558594,0.03856152296066284,0.0989115834236145
1729114515629304000,15.958303955078126,-0.0022487640380859375,0.05867156386375427,0.09104534983634949
1729114515667238100,15.996238037109375,-0.07313346862792969,0.11027207970619202,0.392456978559494
1729114515705172500,16.03417236328125,0.2288379669189453,0.00893181562423706,0.30225449800491333
1729114515743106600,16.0721064453125,-0.1574239730834961,0.12087684869766235,0.8239620327949524
1729114515781041000,16.110041015625,-0.04262828826904297,-0.23850736021995544,0.22179681062698364
1729114515818975000,16.14797509765625,-0.09409904479980469,-0.12964069843292236,0.0317017138004303
1729114515856909000,16.185908935546873,-0.011183738708496094,-0.13289028406143188,-0.5363897085189819
1729114515894843400,16.223843505859374,-0.17584896087646484,0.19045788049697876,-0.7575833797454834
1729114515932777500,16.261777587890624,0.11079692840576172,0.06840579211711884,-1.131358027458191
1729114515970711800,16.2997119140625,-0.0035114288330078125,0.3068177103996277,0.1101350486278534
1729114516008646000,16.33764599609375,0.1425180435180664,0.27155524492263794,-0.0293436199426651
1729114516046580200,16.375580322265623,-0.024675369262695312,0.24320381879806519,-0.14602485299110413
1729114516084514300,16.413514404296876,0.01580333709716797,0.16207267343997955,0.11049600690603256
1729114516122448600,16.45144873046875,-0.036651611328125,0.09855368733406067,-0.005673989653587341
1729114516160382700,16.4893828125,0.04552650451660156,0.23836959898471832,0.9490824937820435
1729114516198317000,16.527317138671876,-0.16176128387451172,0.027462124824523926,0.460646390914917
1729114516236251100,16.565251220703125,0.1309518814086914,-0.2533734440803528,0.30062055587768555
1729114516274185200,16.603185302734374,-0.23748397827148438,0.03997834026813507,0.13233239948749542
1729114516312119600,16.64111962890625,0.29276561737060547,-0.17243611812591553,-0.7465723156929016
1729114516350053600,16.6790537109375,-0.22261524200439453,0.1659882664680481,-0.7107448577880859
1729114516387988000,16.716988037109374,0.0032625198364257812,0.09041847288608551,-0.722804069519043
1729114516425922000,16.754922119140623,-0.0036325454711914062,0.23020583391189575,-0.008233308792114258
1729114516463856400,16.7928564453125,0.08692169189453125,0.24074584245681763,-0.021151632070541382
1729114516501790500,16.83079052734375,-0.03508949279785156,0.22978071868419647,-0.027674883604049683
1729114516539724500,16.868724609375,0.0030269622802734375,0.1465965211391449,0.039069950580596924
1729114516577659000,16.906658935546876,-0.03460979461669922,0.08717548102140427,-0.08198396861553192
1729114516615593000,16.944593017578125,0.012979507446289062,0.03769300878047943,0.04419873654842377
1729114516653527300,16.98252734375,-0.018568992614746094,0.016436800360679626,-0.05652385950088501
1729114516691461400,17.02046142578125,0.015217781066894531,0.013058841228485107,0.008081585168838501
1729114516729395700,17.058395751953125,0.0012645721435546875,0.02511044591665268,-0.03343614935874939
1729114516767329800,17.096329833984374,-0.0015153884887695312,0.05500207841396332,0.010353833436965942
1729114516805264100,17.13426416015625,-0.005745887756347656,0.04217887669801712,-0.01132802665233612
1729114516843198200,17.1721982421875,-0.009524345397949219,0.053643591701984406,0.020385190844535828
1729114516881132300,17.21013232421875,0.015619277954101562,0.0189938023686409,-0.0079679936170578
1729114516919066600,17.248066650390626,-0.06110191345214844,0.24375364184379578,-0.055365532636642456
1729114516957000700,17.286000732421876,-0.0626974105834961,0.4166373908519745,0.04490712285041809
1729114516994935000,17.32393505859375,0.0014495849609375,0.5518863797187805,0.08826179057359695
1729114517032869000,17.361869140625,-0.04594612121582031,0.7500770092010498,0.26463621854782104
1729114517070803500,17.399803466796875,-0.07340240478515625,0.61402428150177,0.01549328863620758
1729114517108737500,17.437737548828125,0.04003715515136719,0.72798091173172,0.16199824213981628
1729114517146671900,17.475671875,-0.044808387756347656,0.7169189453125,-0.020518094301223755
1729114517184606000,17.51360595703125,-0.0401611328125,0.8699036240577698,-0.05563579499721527
1729114517222540300,17.551540283203124,0.06258392333984375,0.9166132211685181,0.19056807458400726
1729114517260474400,17.589474365234373,-0.25348949432373047,0.8185389637947083,-0.16121666133403778
1729114517298408400,17.627408447265626,-0.08974552154541016,0.7356629371643066,0.2266215980052948
1729114517336342800,17.6653427734375,-0.7195730209350586,0.9852661490440369,0.12744003534317017
1729114517374276900,17.70327685546875,-0.16524219512939453,0.6795270442962646,-0.023510649800300598
1729114517412211200,17.741211181640626,0.27887725830078125,0.49542272090911865,-0.1506841778755188
1729114517450145300,17.779145263671875,0.8890190124511719,0.4363691806793213,0.20677387714385986
1729114517488079400,17.817079345703124,2.184597969055176,0.4098104238510132,0.7621141672134399
1729114517526013700,17.855013671875,1.0796070098876953,0.44287824630737305,-0.014988958835601807
1729114517563947800,17.89294775390625,-0.4512319564819336,0.8316026926040649,-0.960418701171875
1729114517601882000,17.930882080078124,1.395289421081543,1.1106547117233276,0.11322467774152756
1729114517639816200,17.968816162109373,-3.525578022003174,1.943085789680481,0.3973239064216614
1729114517677750500,18.00675048828125,1.9678678512573242,0.4424774646759033,0.06251497566699982
1729114517715684600,18.0446845703125,2.763716697692871,0.435624361038208,0.36807698011398315
1729114517753619000,18.082618896484377,0.9302568435668945,1.2039319276809692,0.05157618224620819
1729114517791553000,18.120552978515626,2.8042726516723633,0.2751210927963257,0.8016104102134705
1729114517829487400,18.1584873046875,-0.5097227096557617,1.380271315574646,-0.23398052155971527
1729114517867421400,18.19642138671875,1.8957529067993164,0.15977752208709717,-0.42587244510650635
1729114517905355500,18.23435546875,0.3550100326538086,0.1921548843383789,1.3861407041549683
1729114517943289900,18.272289794921875,1.0941152572631836,-1.3824803829193115,-0.2315039038658142
1729114517981224000,18.310223876953124,2.1525115966796875,-0.21908259391784668,-0.4508923292160034
1729114518019158300,18.348158203125,2.6613054275512695,-0.8498347401618958,-0.31851863861083984
1729114518057092400,18.38609228515625,-1.0326433181762695,-0.4330812692642212,-0.7548588514328003
1729114518095026700,18.424026611328124,-1.1266040802001953,0.0365145206451416,-0.326835572719574
1729114518132960800,18.461960693359377,-1.2443208694458008,-0.730048418045044,-0.18126782774925232
1729114518170895000,18.49989501953125,3.20072078704834,-1.5990735292434692,-0.27172282338142395
1729114518208829200,18.5378291015625,-1.2056636810302734,-1.8458678722381592,0.2833027243614197
1729114518246763500,18.575763427734376,0.3377418518066406,-1.0622072219848633,0.281836599111557
1729114518284697600,18.613697509765625,-0.2177724838256836,-0.3397068977355957,-0.10508030652999878
1729114518322631700,18.651631591796875,0.7621011734008789,-1.731919527053833,-0.4415110647678375
1729114518360566000,18.68956591796875,-2.8525047302246094,-0.608317494392395,-0.2595745027065277
1729114518398500000,18.7275,-2.8145127296447754,-1.120407223701477,-0.271311491727829
1729114518436434400,18.765434326171874,1.7797975540161133,-2.7353808879852295,0.0028556734323501587
1729114518474368500,18.803368408203124,0.958770751953125,-0.236627459526062,0.13732759654521942
1729114518512302800,18.841302734375,0.20041465759277344,-0.4603841304779053,-0.9614170789718628
1729114518550237000,18.87923681640625,3.8488006591796875,-2.3729593753814697,0.005091160535812378
1729114518588171300,18.917171142578123,-3.0104994773864746,-0.6994637250900269,0.01046842336654663
1729114518626105300,18.955105224609376,-0.0026273727416992188,-0.8368687629699707,-0.12353503704071045
1729114518664039400,18.993039306640625,1.3104972839355469,-1.6185503005981445,-1.169518232345581
1729114518701973800,19.030973876953126,-1.2593727111816406,0.15637809038162231,-0.09868717193603516
1729114518739907800,19.068907958984376,-1.6283454895019531,-0.534942090511322,0.2292596399784088
1729114518777842200,19.10684228515625,-1.2390861511230469,-0.9746069312095642,-0.16400478780269623
1729114518815776300,19.1447763671875,-0.7685480117797852,-0.28354859352111816,-0.8622013330459595
1729114518853710600,19.182710693359375,-3.30686616897583,-0.3654191493988037,-0.2845310866832733
1729114518891644700,19.220644775390625,2.035188674926758,-1.2833173274993896,0.650465726852417
1729114518929579000,19.2585791015625,0.00379180908203125,-0.37621235847473145,0.5968233942985535
1729114518967513000,19.29651318359375,0.2570657730102539,-1.580588459968567,-0.7829816341400146
1729114519005447400,19.334447509765624,-0.20014095306396484,-1.6079199314117432,-0.4964309632778168
1729114519043381500,19.372381591796874,2.9572601318359375,-1.0537594556808472,-0.11269626021385193
1729114519081315600,19.410315673828126,0.7318792343139648,-1.1959044933319092,-0.6442676782608032
1729114519119250000,19.44825,0.41292667388916016,-0.9400066137313843,-0.005113869905471802
1729114519157184000,19.48618408203125,1.3312559127807617,-0.10476559400558472,-0.5154019594192505
1729114519195118300,19.524118408203126,-0.8058986663818359,-0.7292090654373169,0.21711677312850952
1729114519233052400,19.562052490234375,1.8686065673828125,-1.2830641269683838,-0.3129598796367645
1729114519270986800,19.59998681640625,-0.35051441192626953,-0.5709754228591919,0.045809850096702576
1729114519308920800,19.6379208984375,0.575352668762207,-1.1549155712127686,-0.5445049405097961
1729114519346855200,19.675855224609375,0.49170780181884766,-0.5841941833496094,-0.1056431233882904
1729114519384789200,19.713789306640624,0.8135585784912109,-0.4463649392127991,-0.20719562470912933
1729114519422723300,19.751723388671873,1.0484428405761719,-0.43161705136299133,0.41110658645629883
1729114519460657700,19.78965771484375,7.2646684646606445,-1.9867064952850342,-0.6858638525009155
1729114519498591700,19.827591796875,-0.23795223236083984,-1.040715217590332,-0.8104811906814575
1729114519536526000,19.865526123046877,-3.3904972076416016,0.209103524684906,0.19743403792381287
1729114519574460200,19.903460205078126,1.7775497436523438,-0.48851457238197327,-0.0373418927192688
1729114519612394500,19.94139453125,-1.538651466369629,0.3130909204483032,0.8557766079902649
1729114519650328600,19.97932861328125,1.2507953643798828,-0.8532359600067139,-0.032183632254600525
1729114519688263000,20.017262939453126,-2.482635021209717,-0.4461028277873993,-0.09513890743255615
1729114519726197000,20.055197021484375,2.96262264251709,-0.9909241199493408,0.6596892476081848
1729114519764131300,20.09313134765625,-2.8618297576904297,0.050673872232437134,-0.5273315906524658
1729114519802065400,20.1310654296875,1.854130744934082,-0.5480307340621948,-0.3927616775035858
1729114519839999500,20.16899951171875,0.46036434173583984,-0.22182008624076843,-0.5309792160987854
1729114519877933800,20.206933837890624,1.539271354675293,0.12306714057922363,0.058675333857536316
1729114519915868000,20.244867919921877,-0.6112823486328125,-0.6384484767913818,-0.14522609114646912
1729114519953802200,20.28280224609375,1.0157480239868164,-1.0292472839355469,0.2627641558647156
1729114519991736300,20.320736328125,-0.9309988021850586,-0.07736623287200928,-0.4242064356803894
1729114520029670700,20.358670654296876,-0.2819337844848633,0.05004167556762695,0.45661962032318115
1729114520067604700,20.396604736328126,-0.2139425277709961,-0.00825190544128418,0.34966665506362915
1729114520105539000,20.4345390625,-3.653167247772217,-0.293200820684433,-0.21790631115436554
1729114520143473200,20.47247314453125,-0.0606689453125,-0.5750171542167664,-0.5175824165344238
1729114520181407200,20.5104072265625,-2.0696487426757812,-0.7052381634712219,0.10464917123317719
1729114520219341600,20.548341552734374,-0.16715621948242188,-0.5783641338348389,-0.3988914489746094
1729114520257275600,20.586275634765624,-0.9294404983520508,-0.8033959865570068,-0.4587218463420868
1729114520295210000,20.6242099609375,0.9666271209716797,-1.8186416625976562,-0.7579537630081177
1729114520333144000,20.66214404296875,-1.1487159729003906,-1.687908411026001,-0.7870697975158691
1729114520371078400,20.700078369140623,-0.8642816543579102,-1.9808969497680664,0.7270649671554565
1729114520409012500,20.738012451171876,1.3467388153076172,-2.7386045455932617,0.9170078039169312
1729114520446946800,20.77594677734375,0.16719532012939453,-2.666158676147461,-0.52996426820755
1729114520484881000,20.813880859375,0.66546630859375,-2.7119863033294678,0.14951620995998383
1729114520522815200,20.851815185546876,1.5928583145141602,-0.35027313232421875,-0.36008745431900024
1729114520560749300,20.889749267578125,-1.8041305541992188,-1.7483047246932983,-1.481513261795044
1729114520598683400,20.927683349609374,2.429819107055664,-1.8744901418685913,-1.2877373695373535
1729114520636617700,20.96561767578125,-1.9419574737548828,-1.6514142751693726,-0.1811644732952118
1729114520674551800,21.0035517578125,0.8109092712402344,-2.0072381496429443,-0.8642646074295044
1729114520712486100,21.041486083984374,-0.0984506607055664,-1.756504774093628,-1.109155535697937
1729114520750420200,21.079420166015623,-0.4843158721923828,-1.922575831413269,-0.410880982875824
1729114520788354600,21.1173544921875,1.6939163208007812,-1.9197419881820679,0.25447484850883484
1729114520826288600,21.15528857421875,-0.3146800994873047,-1.8179694414138794,-0.6229162216186523
1729114520864223000,21.193222900390627,-0.8955411911010742,-1.270563006401062,-0.1784745454788208
1729114520902157000,21.231156982421876,-0.04308891296386719,-1.4433026313781738,-0.23953258991241455
1729114520940091100,21.269091064453125,0.6867866516113281,-1.7237523794174194,-0.10260644555091858
1729114520978025500,21.307025390625,-0.5939359664916992,-1.6354329586029053,0.205624520778656
1729114521015959600,21.34495947265625,0.6807527542114258,-2.09716534614563,0.029085874557495117
1729114521053894000,21.382893798828125,-0.42905330657958984,-1.8198555707931519,-0.020263493061065674
1729114521091828000,21.420827880859374,0.1728219985961914,-1.8707988262176514,0.10444723069667816
1729114521129762300,21.45876220703125,-0.22603416442871094,-1.7769056558609009,-0.05793994665145874
1729114521167696400,21.4966962890625,0.048102378845214844,-1.375779390335083,0.09719829261302948
1729114521205630700,21.534630615234374,-0.02299213409423828,-0.9494590163230896,-0.10313758254051208
1729114521243564800,21.572564697265626,0.03832817077636719,-0.7626297473907471,-0.1025683581829071
1729114521281499100,21.6104990234375,0.014422416687011719,-0.2436501383781433,0.06798014044761658
1729114521319433200,21.64843310546875,-0.026760101318359375,0.11896306276321411,-0.11171087622642517
1729114521357367300,21.6863671875,-0.03647422790527344,0.4093596339225769,0.012863680720329285
1729114521395301600,21.724301513671875,-0.06412315368652344,0.6439926624298096,0.17664460837841034
1729114521433236000,21.762236083984376,0.0785207748413086,0.6661802530288696,-0.008086055517196655
1729114521471170000,21.800170166015626,-0.05706310272216797,0.6337094306945801,-0.02940461039543152
1729114521509104000,21.838104248046875,0.01441192626953125,0.5171012878417969,0.03761136531829834
1729114521547038500,21.87603857421875,-0.0032148361206054688,0.3936692476272583,-0.021462470293045044
1729114521584972500,21.91397265625,0.01836681365966797,0.34389787912368774,0.008147239685058594
1729114521622907000,21.951906982421875,-0.013254165649414062,0.2780724763870239,-0.042411983013153076
1729114521660841000,21.989841064453124,-0.012572288513183594,0.23435330390930176,0.04375624656677246
1729114521698775300,22.027775390625,-0.004544258117675781,0.18001849949359894,-0.029065579175949097
1729114521736709400,22.06570947265625,0.0027341842651367188,0.13368648290634155,0.004892289638519287
1729114521774643700,22.103643798828124,-0.01739788055419922,0.10104543715715408,-0.0021675974130630493
1729114521812577800,22.141577880859376,-0.014508247375488281,0.08988840132951736,-0.007542535662651062
1729114521850512000,22.179511962890626,0.0022668838500976562,0.07213748246431351,0.01641392707824707
1729114521888446200,22.2174462890625,0.010699272155761719,0.07588538527488708,-0.009348049759864807
1729114521926380300,22.25538037109375,0.008543968200683594,0.04657314717769623,-0.004401415586471558
1729114521964314600,22.293314697265625,-0.011845588684082031,0.036890387535095215,-0.011040210723876953
1729114522002248700,22.331248779296875,0.004635810852050781,0.032155267894268036,-0.004008442163467407
1729114522040183000,22.36918310546875,-0.0026340484619140625,0.03499581292271614,0.08245228230953217
1729114522078117000,22.4071171875,-0.03773784637451172,0.06282015144824982,-0.0058296918869018555
1729114522116051500,22.445051513671874,0.04322242736816406,0.038004692643880844,0.29316964745521545
1729114522153985500,22.482985595703123,-0.027419090270996094,-0.08184252679347992,-0.43439429998397827
1729114522191919900,22.520919921875,-0.08479976654052734,-0.35975804924964905,-0.17162147164344788
1729114522229854000,22.55885400390625,-0.21258544921875,0.057352811098098755,0.7589442729949951
1729114522267788000,22.5967880859375,0.07171821594238281,0.0031153932213783264,0.7011741399765015
1729114522305722400,22.634722412109376,0.09454154968261719,0.0036911293864250183,0.6550388336181641
1729114522343656400,22.672656494140625,0.06746387481689453,-0.20445406436920166,0.5476563572883606
1729114522381590800,22.7105908203125,0.023143768310546875,-0.008272483944892883,0.800495982170105
1729114522419524900,22.74852490234375,-0.0964498519897461,-0.11566760390996933,0.9321924448013306
1729114522457459200,22.786459228515625,-0.12834835052490234,-0.3119865655899048,-0.008331865072250366
1729114522495393300,22.824393310546874,0.23230266571044922,-0.4850277006626129,-0.6715825796127319
1729114522533327600,22.86232763671875,-0.05289459228515625,-0.1673172563314438,-0.5908199548721313
1729114522571261700,22.90026171875,-0.022719383239746094,-0.20529323816299438,-0.4980173110961914
1729114522609195800,22.93819580078125,-0.06522274017333984,-0.25254207849502563,-0.8650449514389038
1729114522647130000,22.976130126953127,-0.037919044494628906,-0.20533476769924164,-0.8320642113685608
1729114522685064200,23.014064208984376,-0.16260242462158203,-0.13557973504066467,-0.6921558380126953
1729114522722998500,23.05199853515625,0.02764606475830078,-0.27242088317871094,-0.68280029296875
1729114522760932600,23.0899326171875,-0.011904716491699219,-0.06897304952144623,-0.27684226632118225
1729114522798867000,23.127866943359376,0.026170730590820312,-0.2843056619167328,-0.4697948694229126
1729114522836801000,23.165801025390625,-0.08182334899902344,0.04164649546146393,0.029360834509134293
1729114522874735400,23.2037353515625,0.039272308349609375,-0.1369534134864807,-0.08722880482673645
1729114522912669400,23.24166943359375,-0.1106576919555664,-0.10004527121782303,0.04599854350090027
1729114522950603800,23.279603759765624,0.056522369384765625,-0.1061219573020935,0.3427017629146576
1729114522988537900,23.317537841796874,-0.09910964965820312,-0.0065314993262290955,0.20211905241012573
1729114523026472000,23.355471923828127,0.18276500701904297,-0.2903903126716614,0.15617254376411438
1729114523064406300,23.39340625,0.07464122772216797,-0.2609286904335022,0.3120790123939514
1729114523102340400,23.43134033203125,-0.09015178680419922,-0.2857469618320465,0.040039464831352234
1729114523140274700,23.469274658203126,0.034926414489746094,-0.4446496367454529,-0.48146265745162964
1729114523178208800,23.507208740234375,-0.0043582916259765625,-0.34766027331352234,-0.34601476788520813
1729114523216143000,23.54514306640625,0.027304649353027344,-0.3328331708908081,-0.22293823957443237
1729114523254077200,23.5830771484375,-0.07358074188232422,-0.21726328134536743,-0.5554509162902832
1729114523292011500,23.621011474609375,-0.15268325805664062,-0.08404079079627991,-0.020798245444893837
1729114523329945600,23.658945556640624,0.14093780517578125,-0.07292121648788452,-0.053526826202869415
1729114523367880000,23.6968798828125,0.031665802001953125,-0.06023746728897095,-0.11129866540431976
1729114523405814000,23.73481396484375,-0.16416454315185547,0.0536670982837677,-0.24744386970996857
1729114523443748400,23.772748291015624,-0.029338836669921875,-0.11117181181907654,-0.6575654149055481
1729114523481682400,23.810682373046873,-0.27062129974365234,-0.021295100450515747,-0.10546707361936569
1729114523519616500,23.848616455078126,0.09244918823242188,0.06008923053741455,0.402499258518219
1729114523557550800,23.88655078125,0.47119808197021484,-0.192945659160614,-0.467883825302124
1729114523595485000,23.92448486328125,-0.09288787841796875,0.048633456230163574,-0.0758686438202858
1729114523633419300,23.962419189453126,0.023436546325683594,-0.15885543823242188,-0.26637229323387146
1729114523671353300,24.000353271484375,-0.08682060241699219,-0.11186674237251282,-0.06042809039354324
1729114523709287700,24.03828759765625,0.022507667541503906,-0.09221380949020386,-0.14897486567497253
1729114523747221800,24.0762216796875,-0.019077301025390625,0.08613181114196777,0.19411735236644745
1729114523785156000,24.114156005859375,0.052727699279785156,0.01393553614616394,0.09589134156703949
1729114523823090200,24.152090087890624,-0.10630416870117188,-0.0989992618560791,-0.4154648184776306
1729114523861024300,24.190024169921877,-0.020809173583984375,-0.05016469955444336,-0.37798506021499634
1729114523898958600,24.22795849609375,-0.23162555694580078,0.12123781442642212,0.13502924144268036
1729114523936892700,24.265892578125,0.04114532470703125,-0.05118030309677124,0.09941434860229492
1729114523974827000,24.303826904296876,0.17129230499267578,-0.1488633155822754,-0.07933338731527328
1729114524012761000,24.341760986328126,0.08922576904296875,-0.054214149713516235,-0.06752265989780426
1729114524050695400,24.3796953125,-0.2418355941772461,-0.027602732181549072,-0.504671037197113
1729114524088629500,24.41762939453125,-0.22632312774658203,0.1940315067768097,0.08743472397327423
1729114524126563800,24.455563720703125,-0.041777610778808594,0.04079166054725647,0.22584550082683563
1729114524164498000,24.493497802734375,0.1761922836303711,-0.1481373906135559,-0.2825068235397339
1729114524202432300,24.531432373046876,0.10180950164794922,-0.11860859394073486,-0.47393980622291565
1729114524240366300,24.569366455078125,-0.19166183471679688,0.1263577938079834,0.08316399157047272
1729114524278300400,24.607300537109374,0.11987781524658203,-0.016634047031402588,-0.13269269466400146
1729114524316234800,24.64523486328125,0.026788711547851562,-0.1641329824924469,-0.46213793754577637
1729114524354168800,24.6831689453125,-0.15079975128173828,0.16099397838115692,-0.012550286948680878
1729114524392103200,24.721103271484374,-0.076751708984375,-0.03410312533378601,-0.15057510137557983
1729114524430037200,24.759037353515627,0.32549571990966797,-0.1261245608329773,-1.101894497871399
1729114524467971600,24.7969716796875,-0.2242259979248047,0.036110490560531616,-1.1251001358032227
1729114524505905700,24.83490576171875,0.069183349609375,-0.07344776391983032,-1.10225248336792
1729114524543840000,24.872840087890626,0.011097908020019531,0.09140992164611816,-0.4884740114212036
1729114524581774000,24.910774169921876,-0.12769412994384766,0.3608168065547943,0.6890771389007568
1729114524619708400,24.94870849609375,0.015261650085449219,0.23429782688617706,0.32051795721054077
1729114524657642500,24.986642578125,0.1570110321044922,0.08505144715309143,-0.23409157991409302
1729114524695576800,25.024576904296875,0.19519901275634766,0.19635644555091858,0.22029224038124084
1729114524733511000,25.062510986328125,0.16303348541259766,0.21171140670776367,-0.005000799894332886
1729114524771445000,25.100445068359374,-0.010662078857421875,0.24089381098747253,0.18415452539920807
1729114524809379300,25.13837939453125,-0.004696846008300781,0.23196792602539062,0.1046701967716217
1729114524847313400,25.1763134765625,-0.05447578430175781,0.18376165628433228,0.10157141089439392
1729114524885247700,25.214247802734373,0.004570960998535156,0.14694508910179138,0.14280042052268982
1729114524923181800,25.252181884765626,0.014739990234375,0.12469734251499176,0.010969117283821106
1729114524961116200,25.2901162109375,0.011893272399902344,0.10042999684810638,0.13750512897968292
1729114524999050200,25.32805029296875,-0.0063457489013671875,0.09337424486875534,0.009882062673568726
1729114525036984600,25.365984619140626,-0.0067958831787109375,0.09865451604127884,0.09875482320785522
1729114525074918700,25.403918701171875,-0.006686210632324219,0.07057394832372665,0.02643616497516632
1729114525112853000,25.44185302734375,0.0020704269409179688,0.0780605897307396,0.05711190402507782
1729114525150787000,25.479787109375,0.002227783203125,0.058852121233940125,0.03741990029811859
1729114525188721200,25.51772119140625,0.0016078948974609375,0.07073395699262619,0.04089874029159546
1729114525226655500,25.555655517578124,0.006083488464355469,0.04567664861679077,0.029490143060684204
1729114525264589600,25.593589599609373,0.08376693725585938,0.0731455534696579,-0.03533342480659485
1729114525302524000,25.63152392578125,-0.0017423629760742188,0.458999902009964,-0.006677865982055664
1729114525340458000,25.6694580078125,0.010066032409667969,0.7621243000030518,0.01679617166519165
1729114525378392300,25.707392333984377,0.03596305847167969,1.094835877418518,0.07379228621721268
1729114525416326400,25.745326416015626,0.08370685577392578,1.452271819114685,0.05048976093530655
1729114525454260700,25.7832607421875,0.27513599395751953,1.4085458517074585,0.02056632936000824
1729114525492194800,25.82119482421875,0.0010137557983398438,1.3750156164169312,-0.2289212942123413
1729114525530129000,25.85912890625,-0.09722042083740234,1.80574631690979,-0.24509041011333466
1729114525568063200,25.897063232421875,0.3838624954223633,1.7919920682907104,0.010777384042739868
1729114525605997300,25.934997314453124,0.8385419845581055,1.4536995887756348,-0.5455076098442078
1729114525643931600,25.972931640625,0.6299428939819336,1.9184296131134033,0.2467617243528366
1729114525681865700,26.01086572265625,-1.3101987838745117,1.9088122844696045,-0.29146379232406616
1729114525719800000,26.048800048828124,2.2012386322021484,0.8470312356948853,0.5580086708068848
1729114525757734100,26.086734130859377,0.712590217590332,1.5789604187011719,0.20154504477977753
1729114525795668500,26.12466845703125,0.4192657470703125,0.9435334205627441,-0.533644437789917
1729114525833602800,26.162602783203123,0.8196258544921875,1.1092402935028076,-0.9549375772476196
1729114525871537000,26.200536865234376,-1.7444515228271484,1.4086050987243652,-0.6108123660087585
1729114525909471000,26.238470947265625,-2.8322367668151855,1.5657235383987427,-0.11816589534282684
1729114525947405300,26.2764052734375,0.9673099517822266,1.5308476686477661,0.0375296026468277
1729114525985339400,26.31433935546875,-1.383866310119629,1.7685518264770508,-0.5999222993850708
1729114526023273700,26.352273681640625,-4.984274387359619,3.7882111072540283,-1.1836752891540527
1729114526061207800,26.390207763671874,-4.836348533630371,2.5874862670898438,-0.7480481863021851
1729114526099142000,26.428141845703124,-0.4600257873535156,1.7060545682907104,-0.2855064272880554
1729114526137076200,26.466076171875,-4.688967704772949,2.197364568710327,-0.19278600811958313
1729114526175010300,26.50401025390625,-0.6659307479858398,0.8094596862792969,0.06937524676322937
1729114526212944600,26.541944580078123,-2.3553261756896973,1.3970613479614258,-0.5788043141365051
1729114526250878700,26.579878662109376,-1.0303401947021484,0.7113321423530579,-0.011567801237106323
1729114526288812800,26.617812744140625,3.3993663787841797,-0.5059630870819092,-0.16634435951709747
1729114526326747100,26.6557470703125,-0.23851299285888672,0.29626649618148804,-0.1793777346611023
1729114526364681500,26.693681396484376,0.5352659225463867,0.02806401252746582,0.3520795404911041
1729114526402615600,26.731615478515625,-1.1912946701049805,0.5453281998634338,-0.25509074330329895
1729114526440549600,26.769549560546874,1.92431640625,-1.205935001373291,0.032472945749759674
1729114526478484000,26.80748388671875,1.702402114868164,-1.1942634582519531,0.13208729028701782
1729114526516418000,26.84541796875,-4.357880115509033,0.2153884768486023,0.5624166131019592
1729114526554352400,26.883352294921874,-1.1693344116210938,-0.7101241946220398,0.7742196321487427
1729114526592286500,26.921286376953127,0.7800045013427734,-0.7854506373405457,-0.20348158478736877
1729114526630220800,26.959220703125,-4.343790054321289,0.0899706482887268,0.06745913624763489
1729114526668155000,26.99715478515625,2.137615203857422,-1.1669948101043701,0.47502174973487854
1729114526706089200,27.035089111328126,0.9230566024780273,-0.3813437819480896,0.1548524796962738
1729114526744023300,27.073023193359376,1.5960006713867188,-1.3071861267089844,0.9927160739898682
1729114526781957600,27.11095751953125,-2.815835952758789,-0.8864072561264038,-0.17995122075080872
1729114526819891700,27.1488916015625,0.9939603805541992,-0.9720621109008789,0.539516806602478
1729114526857825800,27.18682568359375,0.8824872970581055,-0.6207440495491028,0.7977589964866638
1729114526895760100,27.224760009765625,-0.9543991088867188,-0.22201842069625854,-0.5126596689224243
1729114526933694200,27.262694091796874,0.7999114990234375,-0.45959532260894775,0.20464715361595154
1729114526971628500,27.300628662109375,-1.1739702224731445,-0.1432133913040161,0.4475312829017639
1729114527009562600,27.338562744140624,-2.038297653198242,-0.5795820355415344,-0.1306191086769104
1729114527047497000,27.3764970703125,-1.5477819442749023,-1.1183831691741943,0.23734880983829498
1729114527085431000,27.41443115234375,-1.6555681228637695,-0.44090816378593445,-0.5776840448379517
1729114527123365400,27.452365478515624,-1.6613702774047852,-1.2587172985076904,-0.8392596244812012
1729114527161299500,27.490299560546877,2.3509578704833984,-0.10785645246505737,2.23132061958313
1729114527199233500,27.528233642578126,-3.1298704147338867,0.2368166446685791,0.3445388972759247
1729114527237167900,27.56616796875,2.509075164794922,-1.5330156087875366,0.38530802726745605
1729114527275102000,27.60410205078125,3.2212753295898438,-0.5697962641716003,0.8968875408172607
1729114527313036300,27.642036376953126,-4.553415775299072,0.9198957681655884,-1.0211575031280518
1729114527350970400,27.679970458984375,1.8834829330444336,-0.5514311194419861,0.2740640640258789
1729114527388904700,27.71790478515625,-0.7428207397460938,-0.6176408529281616,0.5855879783630371
1729114527426838800,27.7558388671875,-2.8281397819519043,0.13206329941749573,-0.4171198308467865
1729114527464773000,27.793773193359375,2.000619888305664,-0.4445708692073822,-0.1422749161720276
1729114527502707200,27.831707275390624,-3.0138087272644043,0.24048730731010437,0.21020959317684174
1729114527540641500,27.8696416015625,0.838688850402832,-1.1500582695007324,-0.65944904088974
1729114527578575600,27.90757568359375,0.06109619140625,-1.3375968933105469,0.359100878238678
1729114527616509700,27.945509765625,-1.3920478820800781,-0.49074047803878784,-0.6304540634155273
1729114527654444000,27.983444091796876,-0.3551340103149414,-0.3812990188598633,-0.19925402104854584
1729114527692378000,28.021378173828126,4.040012359619141,-1.628358006477356,1.6804057359695435
1729114527730312400,28.0593125,-0.41143131256103516,0.2798777222633362,-0.30900639295578003
1729114527768246500,28.09724658203125,-3.750629425048828,-0.533318042755127,-0.8056975603103638
1729114527806180900,28.135180908203125,7.047853469848633,-1.4740633964538574,1.079119324684143
1729114527844115000,28.173114990234374,0.31705379486083984,-0.32673609256744385,0.17635664343833923
1729114527882049300,28.21104931640625,0.7541389465332031,-0.09407168626785278,0.2861377000808716
1729114527919983400,28.2489833984375,1.6253700256347656,-1.2473986148834229,-0.3006703853607178
1729114527957917400,28.28691748046875,-1.6754913330078125,0.12278920412063599,-0.5612013936042786
1729114527995851800,28.324851806640623,0.4046773910522461,-1.0070271492004395,0.5972127318382263
1729114528033786000,28.3627861328125,3.6283483505249023,-1.323716163635254,0.44438785314559937
1729114528071720200,28.40072021484375,3.096700668334961,-0.6330478191375732,-0.3605867326259613
1729114528109654300,28.438654296875,3.7990036010742188,-0.15857166051864624,0.7438321113586426
1729114528147588600,28.476588623046876,1.4497032165527344,-0.7643473148345947,-0.8045172691345215
1729114528185522700,28.514522705078125,-0.8951435089111328,-0.70502769947052,-0.4333098530769348
1729114528223457000,28.55245703125,-0.0991201400756836,0.1614721715450287,0.2451464980840683
1729114528261391000,28.59039111328125,-1.6025629043579102,0.29289165139198303,0.02647903561592102
1729114528299325400,28.628325439453125,-1.1285371780395508,1.2089831829071045,-0.023696422576904297
1729114528337259500,28.666259521484374,-0.4308929443359375,-0.33709898591041565,0.6393369436264038
1729114528375193900,28.70419384765625,2.6019372940063477,-0.9123187065124512,0.018566660583019257
1729114528413128000,28.7421279296875,-1.606771469116211,-0.01800777018070221,-0.05528607219457626
1729114528451062300,28.780062255859374,0.8886804580688477,-1.2553545236587524,-0.49748754501342773
1729114528488996400,28.817996337890627,3.6907920837402344,-0.9570639729499817,0.2116592973470688
1729114528526930400,28.855930419921876,0.1877279281616211,-0.4200037717819214,1.6271870136260986
1729114528564864800,28.89386474609375,2.0310401916503906,-1.7092009782791138,-0.5261216759681702
1729114528602798800,28.931798828125,-1.0271015167236328,-0.5943731665611267,-0.10616259276866913
1729114528640733200,28.969733154296875,-8.820013046264648,-0.37998878955841064,-0.6595875024795532
1729114528678667300,29.007667236328125,0.6178264617919922,-0.7653886079788208,0.7659345269203186
1729114528716601300,29.045601318359374,0.32666873931884766,-2.9795970916748047,0.29396119713783264
1729114528754535700,29.08353564453125,-1.0115718841552734,-2.367900848388672,0.8222763538360596
1729114528792470000,29.121469970703124,-3.1034717559814453,-1.4564951658248901,-0.5398607850074768
1729114528830404000,29.159404052734374,1.2052993774414062,-2.2197484970092773,0.09476632624864578
1729114528868338200,29.197338134765626,-0.7466363906860352,-2.0267820358276367,-0.5264359712600708
1729114528906272500,29.2352724609375,0.8105401992797852,-2.7355289459228516,0.07352008670568466
1729114528944206600,29.27320654296875,-0.6781206130981445,-2.5984272956848145,0.9142855405807495
1729114528982141000,29.311140869140626,-0.8604822158813477,-2.417240858078003,-0.4416373372077942
1729114529020075000,29.349074951171875,-0.4419288635253906,-2.3143579959869385,0.43710994720458984
1729114529058009300,29.38700927734375,-0.7746438980102539,-2.811183452606201,-0.048954203724861145
1729114529095943400,29.424943359375,1.637141227722168,-2.1834716796875,0.11145494878292084
1729114529133877800,29.462877685546875,-0.6560125350952148,-1.8624565601348877,-0.5813506245613098
1729114529171811800,29.500811767578124,0.8379411697387695,-1.7573356628417969,-0.8162260055541992
1729114529209746200,29.53874609375,-1.3761568069458008,-1.579042911529541,-0.565333366394043
1729114529247680300,29.57668017578125,1.6566953659057617,-1.7049674987792969,0.023135825991630554
1729114529285614300,29.6146142578125,-0.9120731353759766,-1.2199032306671143,0.09069089591503143
1729114529323548700,29.652548583984377,1.2430639266967773,-1.933449149131775,0.035750776529312134
1729114529361482800,29.690482666015626,-1.0304431915283203,-1.235275387763977,-0.3191679120063782
1729114529399417000,29.7284169921875,0.4475994110107422,-1.5410027503967285,0.03994670510292053
1729114529437351200,29.76635107421875,-0.30749034881591797,-1.5559401512145996,0.21705840528011322
1729114529475285500,29.804285400390626,0.26781749725341797,-1.658709168434143,-0.22028660774230957
1729114529513219600,29.842219482421875,-0.2666606903076172,-1.0574028491973877,-0.16330140829086304
1729114529551154000,29.88015380859375,0.11301231384277344,-0.8166574835777283,0.22316041588783264
1729114529589088000,29.918087890625,-0.11263847351074219,-0.39631396532058716,-0.13267691433429718
1729114529627022000,29.95602197265625,0.08154296875,-0.03751492500305176,-0.13174699246883392
1729114529664956400,29.993956298828124,-0.0040302276611328125,0.3112142086029053,-0.07896892726421356
1729114529702890500,30.031890380859377,0.05216503143310547,0.5286744832992554,-0.07000732421875
1729114529740824800,30.069824951171874,-0.004973411560058594,0.6228956580162048,-0.02360038459300995
1729114529778759000,30.107759033203124,-0.026824951171875,0.7998543977737427,0.0024501532316207886
1729114529816693200,30.145693359375,-0.03608226776123047,0.8107816576957703,0.09155912697315216
1729114529854627300,30.18362744140625,-0.011751174926757812,0.7138450145721436,-0.031162098050117493
1729114529892561400,30.2215615234375,-0.036467552185058594,0.5808032155036926,-0.02938598394393921
1729114529930495700,30.259495849609376,0.023903846740722656,0.4321955442428589,-0.04521565139293671
1729114529968430000,30.29743017578125,0.02461528778076172,0.3082851767539978,-0.029632404446601868
1729114530006364200,30.3353642578125,0.0053958892822265625,0.20456883311271667,-0.02730587124824524
1729114530044298200,30.37329833984375,-0.003337860107421875,0.1335567831993103,-0.0244290828704834
1729114530082232600,30.411232666015625,-0.0005788803100585938,0.09510350227355957,-0.010446026921272278
1729114530120166700,30.449166748046874,0.0040149688720703125,0.05228376388549805,-0.011051937937736511
1729114530158101000,30.48710107421875,-0.005587577819824219,0.033728018403053284,-0.036432355642318726
1729114530196035000,30.52503515625,-0.0007171630859375,0.0386553555727005,-0.017659246921539307
1729114530233969200,30.56296923828125,-0.005551338195800781,0.07174728810787201,-0.016128569841384888
1729114530271903500,30.600903564453127,-0.0053462982177734375,0.12052865326404572,-0.017381340265274048
1729114530309837600,30.638837646484376,-0.0046539306640625,0.14513589441776276,0.001980125904083252
1729114530347772000,30.67677197265625,0.00036907196044921875,0.12923789024353027,0.005770593881607056
1729114530385706000,30.7147060546875,0.016661643981933594,0.11264672875404358,-0.003086104989051819
1729114530423640300,30.752640380859376,-0.004483222961425781,0.08531128615140915,-0.0066933780908584595
1729114530461574400,30.790574462890625,0.0002765655517578125,0.06527907401323318,-0.003750249743461609
1729114530499508700,30.8285087890625,-0.0089111328125,0.06556624919176102,0.05725279450416565
1729114530537442800,30.86644287109375,-0.004399299621582031,0.09381908178329468,0.1511763632297516
1729114530575377200,30.904377197265624,0.2146320343017578,-0.18686841428279877,-0.18664273619651794
1729114530613311200,30.942311279296874,0.2673816680908203,0.14845629036426544,0.26025593280792236
1729114530651245300,30.980245361328127,0.24656963348388672,0.12965400516986847,0.6531311273574829
1729114530689179600,31.0181796875,0.057669639587402344,0.04866865277290344,0.7604458928108215
1729114530727113700,31.05611376953125,-0.04493904113769531,0.16649213433265686,0.982951283454895
1729114530765048000,31.094048095703126,-0.21506023406982422,0.07930673658847809,0.6047818064689636
1729114530802982100,31.131982177734375,0.18784713745117188,-0.09235669672489166,0.8912186622619629
1729114530840916500,31.16991650390625,0.04390716552734375,-0.43253737688064575,0.24320290982723236
1729114530878850600,31.2078505859375,-0.00528717041015625,-0.49581998586654663,0.048541635274887085
1729114530916785000,31.245784912109375,-0.036606788635253906,-0.38275235891342163,0.11333727836608887
1729114530954719000,31.283718994140624,0.07628726959228516,-0.6517460942268372,-0.5276511311531067
1729114530992653300,31.3216533203125,0.07631397247314453,-0.5119714736938477,-0.47749364376068115
1729114531030587400,31.35958740234375,-0.12646198272705078,-0.433037668466568,-0.5071521401405334
1729114531068521500,31.397521484375,0.017195701599121094,-0.4420776665210724,-0.5400071740150452
1729114531106455800,31.435455810546873,-0.0273590087890625,-0.31739914417266846,-0.378731906414032
1729114531144390000,31.473389892578126,-0.0777578353881836,-0.23564738035202026,-0.14766128361225128
1729114531182324200,31.51132421875,0.3513307571411133,-0.46199023723602295,-0.07295297831296921
1729114531220258300,31.54925830078125,-0.2071056365966797,-0.2878246307373047,0.24746719002723694
1729114531258192600,31.587192626953126,0.07573699951171875,-0.39082878828048706,-0.1796269416809082
1729114531296126700,31.625126708984375,-0.06858348846435547,-0.3303906321525574,-0.18590891361236572
1729114531334061000,31.66306103515625,-0.01604461669921875,-0.2947819232940674,-0.7625524401664734
1729114531371995100,31.7009951171875,0.09477901458740234,-0.24753451347351074,-0.46251556277275085
1729114531409929200,31.73892919921875,-0.17855167388916016,-0.1685451865196228,-0.27382028102874756
1729114531447863600,31.776863525390624,-0.006661415100097656,-0.055974602699279785,-0.08748258650302887
1729114531485797600,31.814797607421873,0.058609962463378906,-0.14980599284172058,-0.25321725010871887
1729114531523732000,31.85273193359375,-0.0024442672729492188,-0.09297105669975281,0.06397096067667007
1729114531561666000,31.890666015625,-0.14120006561279297,-0.03369125723838806,-0.130854070186615
1729114531599600400,31.928600341796876,0.1764230728149414,-0.15579286217689514,-0.05435490980744362
1729114531637534500,31.966534423828126,0.3199644088745117,-0.21592703461647034,-0.32316070795059204
1729114531675468500,32.00446850585938,0.1233510971069336,-0.13547086715698242,-0.1430944800376892
1729114531713403000,32.04240283203125,-0.1895303726196289,0.06722256541252136,-0.05236579105257988
1729114531751337000,32.0803369140625,-0.16667747497558594,-0.057915061712265015,0.14424073696136475
1729114531789271300,32.11827124023438,0.07735157012939453,-0.1643628478050232,-0.04259756952524185
1729114531827205400,32.15620532226563,-0.0704030990600586,-0.05563393235206604,-0.2554170489311218
1729114531865139700,32.1941396484375,-0.04049205780029297,-0.17073464393615723,-0.37659168243408203
1729114531903073800,32.23207373046875,-0.11974334716796875,0.002926379442214966,-0.022252943366765976
1729114531941008100,32.27000805664063,0.05731201171875,-0.0694093406200409,-0.15956273674964905
1729114531978942200,32.307942138671876,0.0025415420532226562,-0.09872603416442871,-0.4078174829483032
1729114532016876300,32.345876220703126,0.07876777648925781,-0.07753545045852661,-0.13129016757011414
1729114532054810600,32.383810546875,-0.111602783203125,-0.0898662805557251,-0.31401655077934265
1729114532092744700,32.42174462890625,0.16629505157470703,-0.04134589433670044,-0.01664309948682785
1729114532130679000,32.459678955078125,0.08417797088623047,-0.1251942217350006,0.02206829935312271
1729114532168613000,32.497613037109375,-0.05678272247314453,-0.09959679841995239,-0.2910420894622803
1729114532206547500,32.53554736328125,-0.038791656494140625,-0.1336221992969513,-0.15264171361923218
1729114532244481500,32.5734814453125,-0.019725799560546875,-0.1362597942352295,-0.0743931233882904
1729114532282415600,32.61141552734375,-0.07077980041503906,-0.15492206811904907,-0.6056088805198669
1729114532320350000,32.64934985351562,0.24864482879638672,-0.10945379734039307,-0.23567071557044983
1729114532358284300,32.6872841796875,0.006946563720703125,0.0008962452411651611,-0.0021186135709285736
1729114532396218400,32.72521826171875,0.02364635467529297,-0.11364400386810303,-0.29981890320777893
1729114532434152400,32.76315234375,-0.033519744873046875,-0.14122039079666138,-0.9692760109901428
1729114532472086800,32.80108666992187,0.132110595703125,-0.1839093565940857,-2.260990858078003
1729114532510020900,32.83902075195312,0.014901161193847656,0.015264421701431274,-2.0302236080169678
1729114532547955200,32.876955078125,-0.206634521484375,0.19131231307983398,-1.3363405466079712
1729114532585889300,32.91488916015625,-0.4789609909057617,0.8516496419906616,0.4368865191936493
1729114532623823600,32.95282373046875,0.4440584182739258,0.2841874957084656,0.4385296106338501
1729114532661758000,32.99075805664062,-0.3292856216430664,0.32616177201271057,-0.2648431658744812
1729114532699692300,33.0286923828125,0.33826732635498047,0.2186357080936432,-0.13213013112545013
1729114532737626400,33.06662646484375,-0.006234169006347656,0.3068060874938965,0.023817673325538635
1729114532775560400,33.104560546875,0.22104454040527344,0.24285124242305756,-0.12044048309326172
1729114532813494800,33.14249487304688,-0.0614013671875,0.28172096610069275,-0.03609815239906311
1729114532851428900,33.18042895507813,0.006346702575683594,0.23906579613685608,-0.008965805172920227
1729114532889363200,33.21836328125,-0.06895828247070312,0.24755871295928955,-0.03752991557121277
1729114532927297300,33.25629736328125,0.020257949829101562,0.19440235197544098,0.0073063671588897705
1729114532965231600,33.29423168945313,0.023222923278808594,0.19838441908359528,-0.05016240477561951
1729114533003165700,33.33216577148438,0.03452777862548828,0.168707937002182,0.0036073923110961914
1729114533041100000,33.37010009765625,0.0010280609130859375,0.15903708338737488,-0.04757434129714966
1729114533079034000,33.4080341796875,0.013100624084472656,0.13748377561569214,-0.007527247071266174
1729114533116968400,33.445968505859376,-0.005649566650390625,0.12278696894645691,-0.0199526846408844
1729114533154902500,33.483902587890626,0.0053863525390625,0.08718641102313995,-0.004639223217964172
1729114533192836600,33.521836669921875,0.0076923370361328125,0.09699325263500214,-0.020493507385253906
1729114533230771000,33.55977099609375,0.008745193481445312,0.10251541435718536,-0.0008616745471954346
1729114533268705000,33.597705078125,0.004530906677246094,0.0713697001338005,-0.01800188422203064
1729114533306639400,33.635639404296874,0.029909133911132812,0.08809322863817215,-0.02156504988670349
1729114533344573400,33.673573486328124,-0.04921150207519531,0.17529955506324768,-0.026710614562034607
1729114533382507500,33.71150756835937,-0.037899017333984375,0.45611315965652466,0.01580020785331726
1729114533420441900,33.74944189453125,-0.12013530731201172,0.7045617699623108,-0.004265293478965759
1729114533458376000,33.7873759765625,0.10503196716308594,0.6714180707931519,0.1269410401582718
1729114533496310300,33.82531030273437,0.012814521789550781,1.0888254642486572,-0.033170610666275024
1729114533534244400,33.86324438476562,-0.16350746154785156,1.35965895652771,-0.01343187689781189
1729114533572178700,33.9011787109375,0.05585765838623047,1.379688024520874,0.01551714539527893
1729114533610112800,33.93911279296875,-0.03966712951660156,1.480333685874939,0.2309553176164627
1729114533648046800,33.977046875,0.38918209075927734,1.2034854888916016,-0.16131342947483063
1729114533685981200,34.01498120117188,0.3872842788696289,1.5844476222991943,0.47000253200531006
1729114533723915500,34.05291552734375,0.3504934310913086,1.5738033056259155,0.0795472264289856
1729114533761849600,34.090849609375,-0.3328371047973633,1.365898847579956,-0.1377120465040207
1729114533799783700,34.12878369140625,0.18672561645507812,1.0947656631469727,0.27204379439353943
1729114533837718000,34.16671801757813,0.26490020751953125,1.181778907775879,0.5573102235794067
1729114533875652000,34.204652099609376,-1.9992218017578125,1.3652870655059814,-0.370617151260376
1729114533913586400,34.24258642578125,1.5858383178710938,1.2345762252807617,-0.159893199801445
1729114533951520500,34.2805205078125,-0.8248929977416992,0.9379715323448181,-0.030293062329292297
1729114533989454800,34.318454833984376,3.8989171981811523,0.1710527539253235,-0.016294479370117188
1729114534027389000,34.356388916015625,-2.877358913421631,1.2720638513565063,-0.8382858037948608
1729114534065323000,34.394322998046874,2.871152877807617,0.6521100997924805,0.1310218721628189
1729114534103257300,34.43225732421875,-1.0353517532348633,0.67938232421875,-0.6291402578353882
1729114534141191400,34.47019140625,-1.799163818359375,1.7005962133407593,-0.00015115737915039062
1729114534179125800,34.508125732421874,-1.2459888458251953,1.3822487592697144,0.03456433117389679
1729114534217059800,34.54605981445312,2.5660438537597656,0.3315744400024414,-0.47769415378570557
1729114534254994200,34.583994140625,-2.07257080078125,1.344914197921753,0.08448147773742676
1729114534292928300,34.62192822265625,0.3097658157348633,0.4944356679916382,0.6006056070327759
1729114534330862300,34.6598623046875,0.6916265487670898,0.02785050868988037,-0.15717697143554688
1729114534368796700,34.69779663085937,1.4673566818237305,-0.006222367286682129,-0.2712213397026062
1729114534406730800,34.73573071289063,-0.7196273803710938,-0.9272884130477905,0.1500038057565689
1729114534444665000,34.7736650390625,0.4842815399169922,-0.4666762948036194,-0.11529313027858734
1729114534482599200,34.81159912109375,-5.588358402252197,-0.42495280504226685,-0.29292720556259155
1729114534520533500,34.84953344726563,-1.7818737030029297,-0.8846398591995239,-0.25790274143218994
1729114534558467600,34.88746752929688,-3.8045945167541504,-0.5737194418907166,-0.5655077695846558
1729114534596402000,34.92540185546875,-3.097301483154297,-0.22685998678207397,0.6179635524749756
1729114534634336000,34.9633359375,2.8958044052124023,-1.2534072399139404,0.6429036855697632
1729114534672270000,35.00127001953125,-2.239424705505371,-0.8638511300086975,0.18399691581726074
1729114534710204400,35.039204345703126,0.6236639022827148,-1.0436146259307861,0.10678830742835999
1729114534748138500,35.077138427734376,-0.7325983047485352,-1.1037646532058716,-0.2731754779815674
1729114534786072600,35.115072509765625,1.269378662109375,-1.2045340538024902,0.05749502778053284
1729114534824007000,35.1530068359375,-1.8946027755737305,-0.5514585971832275,0.4952368140220642
1729114534861941200,35.190941162109375,0.560145378112793,-1.0532159805297852,0.25589144229888916
1729114534899875300,35.228875244140625,3.150320053100586,-1.4964771270751953,-0.5686089396476746
1729114534937809400,35.266809326171874,-1.1272659301757812,0.025079667568206787,0.4412609934806824
1729114534975743700,35.30474365234375,2.271275520324707,-1.2860623598098755,0.3084973692893982
1729114535013677800,35.342677734375,-2.0052452087402344,-1.1498627662658691,0.2938067317008972
1729114535051612200,35.38061206054687,-2.364884376525879,-1.3792858123779297,-0.28386151790618896
1729114535089546200,35.41854614257812,-2.161129951477051,-0.6921951770782471,-0.007771342992782593
1729114535127480600,35.45648046875,3.9350833892822266,-0.8727477788925171,0.1120573952794075
1729114535165414700,35.49441455078125,0.23129940032958984,-0.19570499658584595,-0.0041724443435668945
1729114535203348700,35.5323486328125,0.3687744140625,-1.1793653964996338,-0.37520694732666016
1729114535241283000,35.57028295898437,1.4044008255004883,-1.1800482273101807,-0.14454056322574615
1729114535279217200,35.60821704101563,-2.4931888580322266,-0.403359979391098,0.5544193387031555
1729114535317151500,35.6461513671875,2.260377883911133,-0.714454710483551,0.28110644221305847
1729114535355085600,35.68408544921875,1.3216094970703125,-0.09796881675720215,0.22984203696250916
1729114535393020000,35.72202001953125,-0.08898448944091797,0.011429786682128906,-0.36647236347198486
1729114535430954000,35.7599541015625,-0.525177001953125,-1.7087278366088867,-0.032111942768096924
1729114535468888300,35.79788842773438,1.3536596298217773,-0.9205381870269775,-0.04619947075843811
1729114535506822400,35.83582250976563,-2.5664591789245605,-0.5074115991592407,-0.35130834579467773
1729114535544756500,35.87375659179688,-0.47670936584472656,-1.1098257303237915,-0.13952243328094482
1729114535582690800,35.91169091796875,0.982792854309082,-0.16633105278015137,0.6197208166122437
1729114535620625000,35.949625,-1.392059326171875,0.18893569707870483,-0.2701244354248047
1729114535658559200,35.987559326171876,0.8434896469116211,-1.1771159172058105,0.21439799666404724
1729114535696493300,36.025493408203126,-0.0012426376342773438,-0.5846916437149048,1.0705817937850952
1729114535734427600,36.063427734375,0.8671207427978516,-1.1721816062927246,-0.8794234395027161
1729114535772361700,36.10136181640625,2.6385326385498047,-0.9052540063858032,0.0914512425661087
1729114535810295800,36.1392958984375,-0.9977331161499023,-0.5485861897468567,-0.303194522857666
1729114535848230100,36.177230224609374,1.2574424743652344,-0.27410703897476196,0.48593607544898987
1729114535886164200,36.215164306640624,-1.9135665893554688,-0.6383400559425354,-0.14446380734443665
1729114535924098600,36.2530986328125,1.487030029296875,-1.061336636543274,0.09124043583869934
1729114535962032600,36.29103271484375,-2.277151584625244,0.16238227486610413,0.15537922084331512
1729114535999967000,36.32896704101562,1.4832935333251953,-0.32927635312080383,0.7720905542373657
1729114536037901000,36.36690112304687,0.4051475524902344,-0.5514164566993713,0.06506255269050598
1729114536075835100,36.40483520507812,-1.0357751846313477,-0.7152782678604126,-0.5196669101715088
1729114536113769500,36.44276953125,0.5561914443969727,-0.5735315084457397,0.47617530822753906
1729114536151703600,36.48070361328125,-1.3109159469604492,-0.27031928300857544,0.07116614282131195
1729114536189638000,36.51863793945312,2.786113739013672,-0.6234714984893799,0.6847131848335266
1729114536227572000,36.55657202148438,2.5110883712768555,-0.5389316082000732,-0.36830079555511475
1729114536265506300,36.59450634765625,1.1577739715576172,0.23447221517562866,-0.15265226364135742
1729114536303440400,36.6324404296875,-0.9490718841552734,-0.5739768743515015,0.2546592354774475
1729114536341374500,36.67037451171875,-0.5811538696289062,-0.37205278873443604,-0.26404035091400146
1729114536379308800,36.70830883789063,-1.7044343948364258,-0.9299440979957581,-0.5447336435317993
1729114536417243000,36.746242919921876,-0.1364612579345703,-0.4336225986480713,-0.22816023230552673
1729114536455177200,36.78417724609375,-0.47134971618652344,-0.8934047222137451,-0.26535898447036743
1729114536493111300,36.822111328125,-0.9211196899414062,-0.5345280766487122,0.7140991687774658
1729114536531045600,36.860045654296876,-1.1633844375610352,-0.6145217418670654,0.21689429879188538
1729114536568979700,36.897979736328125,3.0141477584838867,-0.6176373362541199,-0.4795565903186798
1729114536606913800,36.935913818359374,-0.6434135437011719,0.6507260799407959,0.5878156423568726
1729114536644848000,36.97384814453125,6.406463623046875,-1.158613920211792,0.37964969873428345
1729114536682782200,37.0117822265625,-1.829397201538086,0.023495882749557495,0.2835788130760193
1729114536720716500,37.049716552734374,-3.7181167602539062,0.779373288154602,-0.14943784475326538
1729114536758650600,37.08765063476562,0.9835414886474609,-1.9083261489868164,0.047189146280288696
1729114536796585000,37.1255849609375,0.758305549621582,-0.8036994934082031,-0.3646819591522217
1729114536834519000,37.16351904296875,0.35675907135009766,0.043223172426223755,0.5929121375083923
1729114536872453400,37.20145336914062,1.5076828002929688,-1.732309341430664,-0.08617088198661804
1729114536910387500,37.23938745117187,1.5596084594726562,-3.511073589324951,-0.7391773462295532
1729114536948321500,37.27732153320313,-0.873896598815918,-1.4388606548309326,-0.22770240902900696
1729114536986256000,37.315255859375,-2.7776451110839844,-0.8490853905677795,-1.339789867401123
1729114537024190000,37.35318994140625,2.4678049087524414,-2.0131676197052,0.33981579542160034
1729114537062124300,37.39112426757813,-0.39941978454589844,-2.2776384353637695,0.31056010723114014
1729114537100058400,37.42905834960938,-1.3081636428833008,-2.7043018341064453,0.20892946422100067
1729114537137992700,37.46699267578125,1.3713626861572266,-3.0798232555389404,-0.00799638032913208
1729114537175926800,37.5049267578125,-1.2830753326416016,-2.4063878059387207,0.3543786108493805
1729114537213860900,37.54286083984375,2.5027647018432617,-1.6057484149932861,0.7329177856445312
1729114537251795200,37.580795166015626,-1.5370311737060547,-2.2109181880950928,0.3606075644493103
1729114537289729300,37.618729248046876,2.608464241027832,-3.155457019805908,0.14532683789730072
1729114537327663600,37.65666357421875,-1.474461555480957,-2.0708563327789307,-0.7243502140045166
1729114537365597700,37.69459765625,-0.2380361557006836,-1.8619486093521118,-0.20713168382644653
1729114537403532000,37.732531982421875,0.6035480499267578,-2.2491276264190674,-0.010606139898300171
1729114537441466000,37.770466064453124,-1.0124235153198242,-2.127011299133301,-0.11142164468765259
1729114537479400200,37.808400146484374,0.28492259979248047,-1.8330250978469849,0.09736941754817963
1729114537517334500,37.84633447265625,0.8495550155639648,-1.9761587381362915,0.4085179269313812
1729114537555268600,37.8842685546875,0.5589981079101562,-1.4313247203826904,-0.19918334484100342
1729114537593203000,37.92220288085937,-0.14702415466308594,-1.4843796491622925,0.0007723867893218994
1729114537631137000,37.96013696289062,0.07853889465332031,-1.5426561832427979,0.12137192487716675
1729114537669071400,37.9980712890625,-0.006053924560546875,-1.7564425468444824,-0.026390135288238525
1729114537707005400,38.03600537109375,-0.010067939758300781,-1.5470092296600342,0.06632688641548157
1729114537744939500,38.073939453125,-0.0632181167602539,-1.0523309707641602,0.10040242969989777
1729114537782873900,38.11187377929687,0.017995834350585938,-0.8585208654403687,-0.10837671160697937
1729114537820808000,38.14980786132813,-0.05670166015625,-0.29729923605918884,-0.04017210006713867
1729114537858742300,38.1877421875,-0.018938064575195312,0.04542231559753418,0.088106170296669
1729114537896676400,38.22567626953125,0.005496025085449219,0.3122038245201111,-0.004137054085731506
1729114537934610400,38.2636103515625,-0.0089569091796875,0.5864084362983704,-0.00018896162509918213
1729114537972544800,38.30154467773438,-0.00875091552734375,0.7483347058296204,0.022218510508537292
1729114538010478800,38.339478759765626,-0.03017139434814453,0.7547512054443359,0.021650850772857666
1729114538048413200,38.3774130859375,0.0010538101196289062,0.5958870649337769,0.007508993148803711
1729114538086347300,38.41534716796875,-0.00376129150390625,0.6342693567276001,-0.029254168272018433
1729114538124281600,38.453281494140626,-0.010892868041992188,0.5976625680923462,0.03850668668746948
1729114538162215700,38.491215576171875,0.008275985717773438,0.435673326253891,-0.0002597123384475708
1729114538200149800,38.529149658203124,0.0036344528198242188,0.28327566385269165,-0.017337501049041748
1729114538238084000,38.567083984375,-0.00024700164794921875,0.1605081558227539,0.009211733937263489
1729114538276018200,38.60501806640625,0.0020580291748046875,0.07503591477870941,-0.015171006321907043
1729114538313952500,38.642952392578124,0.0046062469482421875,0.042910993099212646,-0.008582979440689087
1729114538351886600,38.68088647460937,-0.008950233459472656,0.032021693885326385,-0.0013313144445419312
1729114538389821000,38.718821044921874,0.002941131591796875,0.050218723714351654,0.003310784697532654
1729114538427755000,38.756755126953124,-0.013454437255859375,0.06631948053836823,-0.004269391298294067
1729114538465689000,38.79468920898437,0.004955291748046875,0.08834605664014816,-0.008873149752616882
1729114538503623400,38.83262353515625,-0.015048027038574219,0.09213973581790924,-0.008228704333305359
1729114538541557500,38.8705576171875,-0.006009101867675781,0.10193764418363571,-0.0013698041439056396
1729114538579491800,38.90849194335937,-0.002719879150390625,0.09555473923683167,-0.009695574641227722
1729114538617426000,38.94642602539062,0.0011005401611328125,0.0827193409204483,0.0077051520347595215
1729114538655360300,38.9843603515625,0.015181541442871094,0.05782144144177437,-0.021731391549110413
1729114538693294300,39.02229443359375,-0.005921363830566406,0.0692773312330246,0.04521191120147705
1729114538731228400,39.060228515625,0.0054302215576171875,0.07165270298719406,0.0722961574792862
1729114538769162800,39.09816284179688,-0.07229995727539062,0.11283022165298462,0.24179762601852417
1729114538807096800,39.13609692382813,0.32268428802490234,0.3057577311992645,0.3362079858779907
1729114538845031200,39.17403125,-0.0968923568725586,0.29128992557525635,0.8380991220474243
1729114538882965200,39.21196533203125,0.45955657958984375,0.17290230095386505,1.1903496980667114
1729114538920899600,39.24989965820313,-0.203369140625,-0.013167917728424072,1.1459996700286865
1729114538958833700,39.287833740234376,0.3023719787597656,-0.10576283186674118,1.4666297435760498
1729114538996767700,39.325767822265625,-0.39247703552246094,-0.41514015197753906,1.1080942153930664
1729114539034702000,39.3637021484375,0.050597190856933594,-0.7084329724311829,0.9974552989006042
1729114539072636200,39.40163623046875,-0.23812484741210938,-0.8466383814811707,-0.09317142516374588
1729114539110570500,39.439570556640625,-0.048107147216796875,-0.8673684000968933,-0.15515194833278656
1729114539148504600,39.477504638671874,-0.04715919494628906,-0.8832808136940002,-0.5397580862045288
1729114539186439000,39.51543896484375,-0.08267593383789062,-0.9174098372459412,-0.5409591794013977
1729114539224373000,39.553373046875,0.11668205261230469,-0.936313807964325,-0.3808106780052185
1729114539262307000,39.59130712890625,0.006819725036621094,-0.8525155782699585,-0.6636022329330444
1729114539300241400,39.62924145507812,0.1190347671508789,-0.584826648235321,-0.21933570504188538
1729114539338175500,39.66717553710937,0.013726234436035156,-0.6008325815200806,-0.1453401744365692
1729114539376109800,39.70510986328125,0.10728073120117188,-0.48761457204818726,-0.42132630944252014
1729114539414044000,39.7430439453125,-0.15360641479492188,-0.327676385641098,0.05527152121067047
1729114539451978200,39.78097827148437,0.10918331146240234,-0.5129402279853821,0.13891315460205078
1729114539489912300,39.81891235351563,0.6992807388305664,-0.6028074026107788,-0.1502244770526886
1729114539527846400,39.85684643554688,0.2367849349975586,-0.18661925196647644,0.26448217034339905
1729114539565780700,39.89478076171875,-0.011239051818847656,-0.24775531888008118,0.3362235128879547
1729114539603714800,39.93271484375,-0.017670631408691406,-0.514607310295105,-0.6928580403327942
1729114539641649200,39.97064916992188,-0.1711416244506836,-0.2978786528110504,-0.28600507974624634
1729114539679583200,40.00858325195313,-0.173126220703125,-0.43927285075187683,-0.3678869903087616
1729114539717517300,40.046517333984376,0.20331859588623047,-0.3138893246650696,-0.028988517820835114
1729114539755451600,40.08445166015625,-0.06204795837402344,-0.161899596452713,0.1609736979007721
1729114539793385700,40.1223857421875,0.07828903198242188,-0.2990894019603729,-0.3709132671356201
1729114539831320000,40.160320068359376,-0.1791238784790039,-0.10965174436569214,-0.025703296065330505
1729114539869254100,40.198254150390625,-0.12080860137939453,-0.21648117899894714,-0.22048985958099365
1729114539907188200,40.236188232421874,-0.03644275665283203,-0.4079747200012207,-0.6994262933731079
1729114539945122600,40.27412255859375,0.08481121063232422,-0.3672844171524048,-0.6008698344230652
1729114539983056600,40.312056640625,-0.22255897521972656,-0.25035542249679565,0.05459263175725937
1729114540020991000,40.349990966796874,-0.12419700622558594,-0.21092629432678223,-0.2022867500782013
1729114540058925000,40.38792504882812,-0.11346912384033203,-0.04903542995452881,-0.24973534047603607
1729114540096859100,40.42585913085937,0.1740713119506836,-0.33768630027770996,-0.39049363136291504
1729114540134793500,40.46379345703125,-0.07522773742675781,-0.16370582580566406,0.010550722479820251
1729114540172727600,40.5017275390625,0.0006361007690429688,-0.07119095325469971,-0.2749333381652832
1729114540210662000,40.53966186523437,0.08637619018554688,-0.28318148851394653,-0.25916633009910583
1729114540248596000,40.57759594726563,-0.16631412506103516,-0.18904578685760498,-0.8095730543136597
1729114540286530300,40.6155302734375,0.1719808578491211,-0.2256106734275818,-1.2419010400772095
1729114540324464400,40.65346435546875,-0.15419864654541016,-0.08497089147567749,-1.2755733728408813
1729114540362398500,40.6913984375,0.024126052856445312,-0.1354193091392517,-1.7831250429153442
1729114540400332800,40.72933276367188,-0.2469797134399414,0.2203071415424347,-2.0459179878234863
1729114540438267000,40.767266845703126,-0.029092788696289062,0.24708732962608337,-1.6653200387954712
1729114540476201200,40.805201171875,-0.07686042785644531,0.47176632285118103,-0.2467266023159027
1729114540514135300,40.84313525390625,-0.45922088623046875,0.29023802280426025,0.14396654069423676
1729114540552069600,40.881069580078126,0.3609619140625,0.11411270499229431,-0.4489066004753113
1729114540590003700,40.919003662109375,-0.2969474792480469,0.3477195203304291,-0.07650317996740341
1729114540627937800,40.956937744140625,0.11426353454589844,0.29031407833099365,-0.073111392557621
1729114540665872100,40.9948720703125,-0.18493080139160156,0.3958051800727844,-0.1908940225839615
1729114540703806200,41.03280615234375,0.14249134063720703,0.3872811496257782,-0.10715087503194809
1729114540741740500,41.070740478515624,-0.03711128234863281,0.36685746908187866,-0.15036314725875854
1729114540779674600,41.10867456054687,0.07330608367919922,0.33889058232307434,-0.10742455720901489
1729114540817609000,41.14660888671875,-0.042400360107421875,0.3092653751373291,-0.09895575046539307
1729114540855543000,41.18454296875,0.012552261352539062,0.25176727771759033,-0.08920672535896301
1729114540893477000,41.22247705078125,-0.018703460693359375,0.2202243059873581,-0.08034347742795944
1729114540931411500,41.26041137695312,0.0024204254150390625,0.19717545807361603,-0.07463465631008148
1729114540969345500,41.29834545898437,-0.00701141357421875,0.16346827149391174,-0.061716802418231964
1729114541007279600,41.33627954101563,-0.0038671493530273438,0.144581139087677,-0.05345742404460907
1729114541045214000,41.3742138671875,0.007983207702636719,0.12245836108922958,-0.04872831702232361
1729114541083148000,41.41214794921875,-0.0015459060668945312,0.11817732453346252,-0.04591172933578491
1729114541121082400,41.45008227539063,0.009799957275390625,0.09651771932840347,-0.04046843945980072
1729114541159016400,41.48801635742188,-0.015878677368164062,0.09916571527719498,-0.05044060945510864
1729114541196950800,41.52595068359375,-0.0011005401611328125,0.08197082579135895,-0.025308765470981598
1729114541234884900,41.563884765625,-0.008394241333007812,0.07303988933563232,-0.03645489364862442
1729114541272819000,41.60181884765625,0.005825996398925781,0.06065373122692108,-0.03768889605998993
1729114541310753300,41.639753173828126,0.006072044372558594,0.053395479917526245,-0.021208882331848145
1729114541348687400,41.677687255859375,0.010188102722167969,0.056212738156318665,-0.009655475616455078
1729114541386621700,41.71562158203125,0.056908607482910156,0.08748558163642883,-0.07441011071205139
1729114541424555800,41.7535556640625,-0.014392852783203125,0.47892916202545166,-0.07607035338878632
1729114541462490000,41.791489990234375,-0.007592201232910156,0.8570515513420105,0.17395734786987305
1729114541500424200,41.829424072265624,0.11847591400146484,1.2014217376708984,0.090126633644104
1729114541538358300,41.86735815429687,0.010945320129394531,1.4918185472488403,0.057142987847328186
1729114541576292600,41.905292724609374,-0.022136688232421875,1.6264065504074097,-0.2262658327817917
1729114541614226700,41.943226806640624,0.14797687530517578,1.45015549659729,-0.20429988205432892
1729114541652160800,41.98116088867187,0.17899131774902344,1.597655177116394,0.026880398392677307
1729114541690095000,42.01909521484375,0.10314083099365234,1.5700124502182007,0.3166440725326538
1729114541728029200,42.057029296875,-0.2662477493286133,1.4335248470306396,-0.06097026169300079
1729114541765963500,42.09496362304687,-0.31597900390625,1.7684218883514404,0.28704121708869934
1729114541803897600,42.13289770507812,1.0988836288452148,1.363368272781372,0.4681210517883301
1729114541841832000,42.17083203125,-0.8418092727661133,1.3998973369598389,0.09038214385509491
1729114541879766000,42.20876611328125,0.08434009552001953,1.228074312210083,1.0342066287994385
1729114541917700000,42.2467001953125,1.0094776153564453,0.541252076625824,-0.752650797367096
1729114541955634400,42.28463452148438,-0.24156665802001953,1.4542083740234375,0.16832335293293
1729114541993568500,42.32256860351563,0.8414955139160156,0.8477051854133606,0.07936070114374161
1729114542031502800,42.3605029296875,0.54150390625,-0.1576845645904541,-0.623227596282959
1729114542069437000,42.39843701171875,2.199901580810547,0.38407212495803833,-0.30658531188964844
1729114542107371000,42.43637109375,-2.7499375343322754,1.2946370840072632,-1.128326654434204
1729114542145305300,42.474305419921876,-0.5246343612670898,1.0191833972930908,-0.685491681098938
1729114542183239400,42.512239501953125,1.3304224014282227,0.7540967464447021,-0.5937038660049438
1729114542221173800,42.550173828125,-2.71966552734375,0.7351599931716919,0.4302072823047638
1729114542259107800,42.58810791015625,0.6035070419311523,0.1545512080192566,-1.1959089040756226
1729114542297042200,42.626042236328125,1.695892333984375,-0.04905635118484497,-1.2763913869857788
1729114542334976300,42.663976318359374,0.12450695037841797,0.22012531757354736,-0.09029602259397507
1729114542372910300,42.701910400390624,-2.418703079223633,0.17571210861206055,-1.3838108777999878
1729114542410844700,42.7398447265625,0.7057123184204102,0.10364937782287598,-0.25334760546684265
1729114542448778800,42.77777880859375,2.368783950805664,-0.503160834312439,-0.08897025138139725
1729114542486712800,42.815712890625,-0.1945972442626953,-0.4260767698287964,-0.18131843209266663
1729114542524647200,42.85364721679687,0.26556968688964844,-0.6644196510314941,-0.16231954097747803
1729114542562581200,42.89158129882812,-0.6159639358520508,-0.8641757369041443,0.42773276567459106
1729114542600515600,42.929515625,0.39900684356689453,-0.6467506885528564,0.25679460167884827
1729114542638449700,42.96744970703125,-0.9376144409179688,-1.0887815952301025,-0.14264266192913055
1729114542676384000,43.00538403320313,-0.15680980682373047,0.5324182510375977,0.2341185063123703
1729114542714318000,43.04331811523438,-0.4303874969482422,-1.081200122833252,1.3445378541946411
1729114542752252200,43.08125219726563,0.3805732727050781,-1.029198169708252,0.43773016333580017
1729114542790186500,43.1191865234375,-2.948091983795166,-0.3206714391708374,0.9338019490242004
1729114542828120600,43.15712060546875,-0.5014228820800781,-2.1259541511535645,0.23802614212036133
1729114542866055000,43.19505493164063,0.6319904327392578,-1.2977337837219238,1.5516232252120972
1729114542903989000,43.232989013671876,-2.714113712310791,-0.6296758651733398,0.9618802070617676
1729114542941923000,43.270923095703125,3.3307104110717773,-1.3898414373397827,0.860124945640564
1729114542979857400,43.308857421875,1.8817510604858398,-1.3041584491729736,0.7925028800964355
1729114543017791500,43.34679150390625,0.5178737640380859,-0.4030872583389282,1.395453929901123
1729114543055725800,43.384725830078125,1.0239992141723633,-0.8832862377166748,-0.12152732908725739
1729114543093660000,43.422659912109374,2.7410993576049805,-0.19905483722686768,0.7047024369239807
1729114543131594000,43.46059399414062,-1.7031383514404297,-0.6478257179260254,0.6601486206054688
1729114543169528300,43.4985283203125,1.5081663131713867,-0.26993244886398315,0.086923748254776
1729114543207462400,43.53646240234375,-4.401159286499023,-0.6421500444412231,0.31645467877388
1729114543245396700,43.57439672851562,-1.8231325149536133,-1.1743404865264893,-0.029056355357170105
1729114543283330800,43.61233081054687,-0.16574954986572266,-0.6223080158233643,0.10484757274389267
1729114543321265200,43.65026513671875,-2.318629264831543,0.198266863822937,0.690193235874176
1729114543359199200,43.68819921875,1.1310310363769531,0.2953169345855713,-0.33312129974365234
1729114543397133300,43.72613330078125,-2.5142345428466797,-0.16799676418304443,0.27130305767059326
1729114543435067600,43.76406762695313,1.2798652648925781,-1.020169973373413,0.6053696274757385
1729114543473001700,43.80200170898438,-0.6869907379150391,-0.6324763298034668,-0.38371503353118896
1729114543510935800,43.83993579101563,-1.3844404220581055,-0.18022119998931885,0.5763561725616455
1729114543548870100,43.8778701171875,0.40404510498046875,-1.1203653812408447,0.04195356369018555
1729114543586804200,43.91580419921875,0.5980978012084961,-0.2966860234737396,-0.4376762807369232
1729114543624738600,43.95373852539063,-2.2227840423583984,-0.2976015508174896,-0.37419623136520386
1729114543662672600,43.991672607421876,0.5370845794677734,-1.8656539916992188,0.04127421975135803
1729114543700607000,44.02960693359375,-1.9279918670654297,-0.593640923500061,-0.40000563859939575
1729114543738541000,44.067541015625,-1.0298099517822266,0.05390310287475586,-0.10761046409606934
1729114543776475100,44.10547509765625,3.480412483215332,-0.7926626801490784,-0.2801680564880371
1729114543814409500,44.143409423828125,-1.4312238693237305,-0.017804503440856934,-0.3108571767807007
1729114543852343600,44.181343505859374,-1.759486198425293,0.15505290031433105,0.5151129364967346
1729114543890278000,44.21927783203125,-4.48166561126709,0.31168240308761597,-1.003713846206665
1729114543928212000,44.2572119140625,1.2330389022827148,-1.3340542316436768,-0.007598096504807472
1729114543966146000,44.29514599609375,1.5097150802612305,-0.7473326921463013,-0.05249727889895439
1729114544004080400,44.33308032226562,0.2140674591064453,0.1943511664867401,0.08435185998678207
1729114544042014500,44.37101440429687,0.13571453094482422,0.07218664884567261,-0.17063580453395844
1729114544079948800,44.40894873046875,-0.6510906219482422,-0.8373281359672546,0.6196070909500122
1729114544117883000,44.4468828125,-0.06386661529541016,-0.4574102759361267,-1.1072378158569336
1729114544155817000,44.48481689453125,-3.013542652130127,-0.6545320153236389,-1.0443006753921509
1729114544193751300,44.52275122070313,2.437453269958496,-1.1719322204589844,0.27534863352775574
1729114544231685400,44.56068530273438,-0.1548299789428711,0.08821412920951843,0.08605296909809113
1729114544269619700,44.59861962890625,0.4872617721557617,-0.6339242458343506,0.4554581344127655
1729114544307553800,44.6365537109375,-1.7109489440917969,-0.39717671275138855,-0.7302451133728027
1729114544345488000,44.67448779296875,-0.8175468444824219,-0.7789814472198486,-0.3924356997013092
1729114544383422200,44.712422119140626,2.8646106719970703,0.7280027866363525,0.6722331047058105
1729114544421356300,44.750356201171876,-0.7029409408569336,-0.5680344104766846,-0.6357935667037964
1729114544459290600,44.78829052734375,3.0866613388061523,-0.38541656732559204,-0.24055486917495728
1729114544497224700,44.826224609375,1.9692802429199219,-0.8258727788925171,-0.28092795610427856
1729114544535158800,44.86415869140625,1.5832290649414062,-0.21839645504951477,-0.15353314578533173
1729114544573093000,44.902093017578125,2.1827077865600586,-1.002433180809021,-1.3189642429351807
1729114544611027200,44.940027099609374,0.7224149703979492,-0.9899477958679199,-0.06178241968154907
1729114544648961500,44.97796142578125,-1.7891998291015625,0.08123359084129333,-0.9135518670082092
1729114544686895600,45.0158955078125,-1.668726921081543,0.41399312019348145,0.33997631072998047
1729114544724829700,45.05382958984375,-1.263901710510254,0.09987059235572815,0.2405635267496109
1729114544762764000,45.09176391601562,-0.16382980346679688,-1.0852527618408203,-0.043620988726615906
1729114544800698000,45.12969799804687,-3.1139888763427734,0.543901801109314,-0.27480876445770264
1729114544838632400,45.16763256835937,1.7732610702514648,-0.37228456139564514,0.12232270836830139
1729114544876566500,45.20556640625,3.929525375366211,-1.332637071609497,0.5456405878067017
1729114544914500600,45.24350048828125,0.0644998550415039,-1.0507149696350098,-0.8732086420059204
1729114544952435000,45.28143505859375,0.41460227966308594,-1.6235501766204834,0.22129172086715698
1729114544990369000,45.319369140625,-2.4951257705688477,-2.1942453384399414,0.12673160433769226
1729114545028303400,45.35730346679688,-0.1610889434814453,-2.677314281463623,0.639479398727417
1729114545066237400,45.39523754882813,1.7161674499511719,-2.4474501609802246,0.9590194821357727
1729114545104171500,45.43317163085938,-1.3228235244750977,-2.7457287311553955,-0.5019831657409668
1729114545142105900,45.47110595703125,0.1606006622314453,-2.5083699226379395,-0.5633615255355835
1729114545180040000,45.5090400390625,0.4685373306274414,-1.858486533164978,0.8429378867149353
1729114545217974300,45.54697436523438,1.6108083724975586,-1.9113900661468506,0.11998598277568817
1729114545255908400,45.584908447265626,-2.3455100059509277,-1.7708089351654053,-0.5997375249862671
1729114545293842400,45.622842529296875,1.0887126922607422,-1.8675401210784912,-0.08250105381011963
1729114545331776800,45.66077685546875,-2.022481918334961,-1.974118947982788,0.8799207210540771
1729114545369710800,45.6987109375,1.5650901794433594,-2.5516602993011475,0.37852227687835693
1729114545407645200,45.736645263671875,-1.4999361038208008,-2.134979724884033,-0.3871903419494629
1729114545445579300,45.774579345703124,1.1796741485595703,-2.218994140625,0.032959431409835815
1729114545483513300,45.81251342773437,-1.1935901641845703,-1.6731812953948975,-0.5775617361068726
1729114545521447700,45.85044775390625,0.9140863418579102,-2.3849871158599854,-0.16366910934448242
1729114545559381800,45.8883818359375,-0.7593002319335938,-1.3980892896652222,0.2754300534725189
1729114545597316000,45.92631616210937,1.2673826217651367,-1.5735664367675781,0.08091914653778076
1729114545635250200,45.96425024414062,-1.0374364852905273,-1.4188203811645508,-0.08409979939460754
1729114545673184300,46.00218432617187,1.2319974899291992,-1.4258781671524048,0.02384495735168457
1729114545711118600,46.04011865234375,-0.782872200012207,-1.018632173538208,-0.6008716225624084
1729114545749052700,46.078052734375,0.5612592697143555,-1.4169201850891113,-0.27609917521476746
