time,seconds_elapsed,z,y,x
1729114499724758300,0.05375830078125,0.00007635590736754239,0.00022906772210262716,0.00022906772210262716
1729114499758091300,0.08709130859375,-0.00007635590736754239,-0.0004581354442052543,-0.0009926267666742206
1729114499791424300,0.12042431640625,0.00038177953683771193,0.0004581354442052543,0.0010689827613532543
1729114499824757200,0.15375732421875,0.00038177953683771193,-0.0005344913806766272,-0.00015271181473508477
1729114499858090500,0.187090576171875,0.00007635590736754239,-0.00015271181473508477,-0.00015271181473508477
1729114499891423500,0.220423583984375,0.00022906772210262716,-0.00030542362947016954,-0.0007635590736754239
1729114499924756500,0.253756591796875,-0.0008399150101467967,-0.00007635590736754239,-0.00015271181473508477
1729114499958089500,0.28708935546875,0.00022906772210262716,0.00015271181473508477,0.00030542362947016954
1729114499991422500,0.32042236328125,0.00007635590736754239,0.0004581354442052543,0.00015271181473508477
1729114500024755500,0.35375537109375,0.00022906772210262716,0.00030542362947016954,-0.00015271181473508477
1729114500058088400,0.38708837890625,0.00038177953683771193,-0.00015271181473508477,-0.00015271181473508477
1729114500091421400,0.42042138671875,0.00038177953683771193,-0.00015271181473508477,-0.00015271181473508477
1729114500124754400,0.45375439453125,-0.00022906772210262716,-0.00015271181473508477,-0.00015271181473508477
1729114500158087700,0.487087646484375,0.00038177953683771193,-0.00015271181473508477,0.0004581354442052543
1729114500191420700,0.520420654296875,-0.00030542362947016954,0.0004581354442052543,-0.00015271181473508477
1729114500224753700,0.553753662109375,0.00015271181473508477,-0.00015271181473508477,-0.00015271181473508477
1729114500258086700,0.587086669921875,0,-0.00015271181473508477,0.00022906772210262716
1729114500291419600,0.620419677734375,0.0006108472589403391,-0.00015271181473508477,-0.00015271181473508477
1729114500324752600,0.653752685546875,-0.00022906772210262716,0.0004581354442052543,-0.00015271181473508477
1729114500358085600,0.687085693359375,-0.00022906772210262716,-0.00015271181473508477,-0.00015271181473508477
1729114500391418600,0.720418701171875,-0.0006108472589403391,-0.00015271181473508477,0.00022906772210262716
1729114500424751600,0.753751708984375,0,-0.0005344913806766272,-0.00015271181473508477
1729114500458084900,0.7870849609375,-0.00022906772210262716,0.00038177953683771193,-0.00015271181473508477
1729114500491417900,0.82041796875,0.00030542362947016954,-0.000687203137204051,0.00038177953683771193
1729114500524750800,0.853750732421875,0.00015271181473508477,0.00030542362947016954,0.00007635590736754239
1729114500558083800,0.887083740234375,0.00022906772210262716,-0.00015271181473508477,-0.0005344913806766272
1729114500591416800,0.920416748046875,0.00030542362947016954,-0.00015271181473508477,0.00038177953683771193
1729114500624749800,0.953749755859375,0.00030542362947016954,-0.000687203137204051,0.00038177953683771193
1729114500658082800,0.987082763671875,-0.00022906772210262716,-0.00015271181473508477,-0.00015271181473508477
1729114500691415800,1.020415771484375,0.00038177953683771193,-0.00038177953683771193,0.00007635590736754239
1729114500724748800,1.053748779296875,-0.00022906772210262716,0.00038177953683771193,-0.00015271181473508477
1729114500758082000,1.08708203125,-0.00022906772210262716,-0.00015271181473508477,-0.00015271181473508477
1729114500791415000,1.1204150390625,-0.00007635590736754239,-0.00030542362947016954,-0.00015271181473508477
1729114500824748000,1.153748046875,0.000687203137204051,-0.00015271181473508477,-0.00015271181473508477
1729114500858081000,1.1870810546875,-0.00007635590736754239,-0.00015271181473508477,-0.00015271181473508477
1729114500891414000,1.2204140625,0.00038177953683771193,-0.00015271181473508477,-0.00015271181473508477
1729114500924747000,1.2537470703125,0.00022906772210262716,0.00007635590736754239,-0.00030542362947016954
1729114500958080000,1.287080078125,-0.00022906772210262716,-0.00015271181473508477,0.00015271181473508477
1729114500991413000,1.3204130859375,-0.00007635590736754239,0.00030542362947016954,0.00015271181473508477
1729114501024746000,1.35374609375,-0.00022906772210262716,-0.00015271181473508477,-0.0007635590736754239
1729114501058079200,1.387079345703125,0.00022906772210262716,-0.00015271181473508477,0
1729114501091412200,1.420412109375,0.00038177953683771193,-0.00015271181473508477,-0.00015271181473508477
1729114501124745200,1.4537451171875,0.00038177953683771193,0.00007635590736754239,0.00030542362947016954
1729114501158078200,1.487078125,0.00038177953683771193,-0.00015271181473508477,-0.00015271181473508477
1729114501191411200,1.5204111328125,0.00030542362947016954,0,-0.00007635590736754239
1729114501224744200,1.553744140625,0.00038177953683771193,0,-0.0004581354442052543
1729114501258077200,1.5870771484375,0.0005344913806766272,0,-0.00007635590736754239
1729114501291410200,1.62041015625,-0.00030542362947016954,0,-0.00007635590736754239
1729114501324743200,1.6537431640625,0.00015271181473508477,0,-0.00007635590736754239
1729114501358076400,1.687076416015625,0,0.00022906772210262716,-0.00007635590736754239
1729114501391409400,1.720409423828125,0.00022906772210262716,-0.0004581354442052543,-0.00007635590736754239
1729114501424742400,1.753742431640625,-0.0004581354442052543,0,0
1729114501458075400,1.787075439453125,0.00007635590736754239,-0.00007635590736754239,0
1729114501491408400,1.820408447265625,-0.00015271181473508477,0.00030542362947016954,0
1729114501524741400,1.853741455078125,0.0006108472589403391,0.00007635590736754239,0
1729114501558074400,1.887074462890625,-0.00038177953683771193,-0.00007635590736754239,0.0005344913806766272
1729114501591407400,1.920407470703125,0.00015271181473508477,0.0004581354442052543,0
1729114501624740400,1.953740234375,-0.00022906772210262716,-0.00022906772210262716,0.00038177953683771193
1729114501658073600,1.987073486328125,0.00022906772210262716,-0.00007635590736754239,0.00038177953683771193
1729114501691406600,2.020406494140625,-0.0004581354442052543,-0.0006108472589403391,0
1729114501724739600,2.053739501953125,0.00015271181473508477,0.0005344913806766272,0
1729114501758072600,2.087072509765625,0.00022906772210262716,-0.00007635590736754239,0
1729114501791405600,2.120405517578125,0.0005344913806766272,-0.00007635590736754239,0.0009162708884105086
1729114501824738600,2.153738525390625,-0.00038177953683771193,-0.00015271181473508477,0
1729114501858071600,2.187071533203125,0.00015271181473508477,-0.00007635590736754239,0
1729114501891404500,2.220404541015625,-0.00015271181473508477,0.0005344913806766272,-0.00007635590736754239
1729114501924737800,2.25373779296875,-0.00007635590736754239,-0.000687203137204051,0.00022906772210262716
1729114501958070800,2.28707080078125,0.00007635590736754239,-0.00007635590736754239,-0.00007635590736754239
1729114501991403800,2.32040380859375,-0.0009926267666742206,-0.00007635590736754239,-0.00007635590736754239
1729114502024736800,2.35373681640625,0.00007635590736754239,-0.00007635590736754239,0.00038177953683771193
1729114502058069800,2.38706982421875,-0.00007635590736754239,-0.00007635590736754239,0.00022906772210262716
1729114502091402800,2.42040283203125,0.00022906772210262716,0,0
1729114502124735700,2.45373583984375,-0.00038177953683771193,0,-0.00015271181473508477
1729114502158068700,2.48706884765625,0.00007635590736754239,0.0004581354442052543,0.00015271181473508477
1729114502191401700,2.520401611328125,-0.00007635590736754239,0.0006108472589403391,0.00015271181473508477
1729114502224735000,2.55373486328125,0.00007635590736754239,0,-0.00030542362947016954
1729114502258068000,2.58706787109375,-0.00030542362947016954,0,-0.00015271181473508477
1729114502291401000,2.62040087890625,-0.00022906772210262716,0.0006108472589403391,-0.00015271181473508477
1729114502324734000,2.65373388671875,0.00030542362947016954,-0.00038177953683771193,-0.00015271181473508477
1729114502358067000,2.68706689453125,-0.00030542362947016954,-0.00022906772210262716,-0.00015271181473508477
1729114502391400000,2.72039990234375,0.00022906772210262716,0.0006108472589403391,-0.00015271181473508477
1729114502424733000,2.75373291015625,-0.00038177953683771193,0.00007635590736754239,-0.00015271181473508477
1729114502458066000,2.78706591796875,0,0,0.00007635590736754239
1729114502491399000,2.82039892578125,0.00015271181473508477,-0.0004581354442052543,-0.00015271181473508477
1729114502524732200,2.853732177734375,0.00030542362947016954,-0.00007635590736754239,0.00038177953683771193
1729114502558065200,2.887065185546875,-0.00030542362947016954,-0.00007635590736754239,-0.00015271181473508477
1729114502591398100,2.920398193359375,0.00030542362947016954,-0.0004581354442052543,-0.00015271181473508477
1729114502624731100,2.953731201171875,0.00015271181473508477,-0.00007635590736754239,-0.00030542362947016954
1729114502658064100,2.987064208984375,0.00038177953683771193,-0.00007635590736754239,-0.00007635590736754239
1729114502691397000,3.020397216796875,0.00038177953683771193,-0.00007635590736754239,0.0004581354442052543
1729114502724730000,3.053730224609375,0.00038177953683771193,-0.00030542362947016954,-0.00007635590736754239
1729114502758063000,3.08706298828125,-0.00022906772210262716,-0.00007635590736754239,0.00015271181473508477
1729114502791396000,3.12039599609375,-0.00015271181473508477,-0.00015271181473508477,-0.00007635590736754239
1729114502824729300,3.153729248046875,0.00030542362947016954,-0.000687203137204051,0.0004581354442052543
1729114502858062300,3.187062255859375,0.00030542362947016954,0.00030542362947016954,0.00015271181473508477
1729114502891395300,3.220395263671875,-0.00030542362947016954,-0.00007635590736754239,0.00022906772210262716
1729114502924728300,3.253728271484375,0.00030542362947016954,-0.0005344913806766272,0.0004581354442052543
1729114502958061300,3.287061279296875,-0.00022906772210262716,0,0.0005344913806766272
1729114502991394300,3.320394287109375,-0.00030542362947016954,0,-0.00007635590736754239
1729114503024727300,3.353727294921875,-0.00030542362947016954,0,-0.00007635590736754239
1729114503058060300,3.387060302734375,-0.00030542362947016954,0,0.00007635590736754239
1729114503091393300,3.420393310546875,-0.00030542362947016954,0.00007635590736754239,-0.00007635590736754239
1729114503124726500,3.4537265625,0.0004581354442052543,-0.00015271181473508477,-0.0005344913806766272
1729114503158059500,3.4870595703125,0.00030542362947016954,0.00007635590736754239,-0.00015271181473508477
1729114503191392500,3.520392578125,-0.00030542362947016954,0.00007635590736754239,-0.00015271181473508477
1729114503224725500,3.5537255859375,-0.00030542362947016954,0.00007635590736754239,-0.00015271181473508477
1729114503258058500,3.58705859375,-0.00015271181473508477,0.000687203137204051,-0.00015271181473508477
1729114503291391500,3.6203916015625,0,0.000687203137204051,-0.00015271181473508477
1729114503324724500,3.653724365234375,-0.00015271181473508477,0.000687203137204051,-0.00015271181473508477
1729114503358057500,3.687057373046875,0.00030542362947016954,0.00007635590736754239,-0.00015271181473508477
1729114503391390500,3.720390380859375,0.00030542362947016954,0.0005344913806766272,-0.00015271181473508477
1729114503424723700,3.7537236328125,0.00038177953683771193,0.00030542362947016954,-0.00015271181473508477
1729114503458056700,3.787056640625,-0.00015271181473508477,0,-0.00015271181473508477
1729114503491389700,3.8203896484375,0.00030542362947016954,0,0.0004581354442052543
1729114503524722700,3.85372265625,0.00030542362947016954,0,0.00038177953683771193
1729114503558055700,3.8870556640625,0.00030542362947016954,0,-0.00007635590736754239
1729114503591388700,3.920388671875,-0.00007635590736754239,0.00038177953683771193,-0.00030542362947016954
1729114503624721700,3.9537216796875,-0.00030542362947016954,-0.00007635590736754239,-0.00007635590736754239
1729114503658054700,3.9870546875,-0.00030542362947016954,0.00038177953683771193,-0.00007635590736754239
1729114503691387600,4.0203876953125,-0.000687203137204051,-0.00015271181473508477,-0.00007635590736754239
1729114503724721000,4.053720947265625,-0.00015271181473508477,0.00007635590736754239,0.00038177953683771193
1729114503758054000,4.087053955078125,-0.00030542362947016954,-0.00015271181473508477,0
1729114503791387000,4.120386962890625,0.00022906772210262716,-0.00015271181473508477,0.00007635590736754239
1729114503824720000,4.153719970703125,0.00022906772210262716,-0.00015271181473508477,0.00038177953683771193
1729114503858052900,4.187052978515625,0.00022906772210262716,-0.00022906772210262716,0
1729114503891385900,4.2203857421875,-0.00038177953683771193,-0.000687203137204051,0
1729114503924718800,4.25371875,-0.00038177953683771193,-0.00022906772210262716,-0.00007635590736754239
1729114503958051800,4.2870517578125,-0.00015271181473508477,-0.0006108472589403391,-0.0004581354442052543
1729114503991384800,4.320384765625,-0.00007635590736754239,0.00015271181473508477,-0.00007635590736754239
1729114504024718000,4.353718017578125,-0.00038177953683771193,-0.00007635590736754239,-0.00007635590736754239
1729114504058051000,4.387051025390625,-0.00038177953683771193,0.0004581354442052543,-0.00007635590736754239
1729114504091384000,4.420384033203125,-0.00038177953683771193,0.00030542362947016954,0.00038177953683771193
1729114504124717000,4.453717041015625,-0.000687203137204051,0.00022906772210262716,0.00022906772210262716
1729114504158050000,4.487050048828125,0.00030542362947016954,0,0.00007635590736754239
1729114504191383000,4.520383056640625,0.00030542362947016954,-0.00007635590736754239,0.0005344913806766272
1729114504224716000,4.553716064453125,-0.00015271181473508477,0.00007635590736754239,0.00007635590736754239
1729114504258049000,4.587049072265625,-0.00030542362947016954,-0.00007635590736754239,0.00022906772210262716
1729114504291382300,4.62038232421875,-0.00015271181473508477,0.00038177953683771193,-0.0005344913806766272
1729114504324715300,4.65371533203125,0.00038177953683771193,-0.00007635590736754239,-0.00007635590736754239
1729114504358048300,4.68704833984375,-0.00038177953683771193,-0.00007635590736754239,0.00007635590736754239
1729114504391381200,4.72038134765625,0.00038177953683771193,-0.00007635590736754239,-0.00007635590736754239
1729114504424714200,4.75371435546875,0.00038177953683771193,0.0005344913806766272,0.00038177953683771193
1729114504458047200,4.787047119140625,-0.00022906772210262716,0.0004581354442052543,-0.00007635590736754239
1729114504491380200,4.820380126953125,0.00022906772210262716,0.00038177953683771193,-0.00007635590736754239
1729114504524713200,4.853713134765625,0.00038177953683771193,-0.00015271181473508477,-0.00015271181473508477
1729114504558046200,4.887046142578125,0,-0.00015271181473508477,-0.00015271181473508477
1729114504591379500,4.92037939453125,-0.00022906772210262716,0.0004581354442052543,-0.00015271181473508477
1729114504624712400,4.95371240234375,-0.00022906772210262716,-0.00007635590736754239,-0.00022906772210262716
1729114504658045400,4.98704541015625,0.00015271181473508477,0.00007635590736754239,-0.00015271181473508477
1729114504691378400,5.02037841796875,0,-0.00015271181473508477,-0.00015271181473508477
1729114504724711400,5.05371142578125,0.00038177953683771193,0.00038177953683771193,-0.00015271181473508477
1729114504758044400,5.08704443359375,0.00038177953683771193,-0.00022906772210262716,-0.00015271181473508477
1729114504791377400,5.12037744140625,0.00015271181473508477,-0.0005344913806766272,-0.00015271181473508477
1729114504824710400,5.15371044921875,0,-0.00022906772210262716,-0.00007635590736754239
1729114504858043400,5.18704345703125,0.00038177953683771193,-0.00022906772210262716,-0.00007635590736754239
1729114504891376600,5.220376708984375,0.00030542362947016954,-0.00022906772210262716,0.0005344913806766272
1729114504924709600,5.253709716796875,0.00007635590736754239,-0.00022906772210262716,0.0005344913806766272
1729114504958042600,5.287042724609375,0.00030542362947016954,-0.00022906772210262716,0.00015271181473508477
1729114504991375600,5.320375732421875,0.00022906772210262716,-0.00022906772210262716,-0.00015271181473508477
1729114505024708600,5.35370849609375,-0.00030542362947016954,-0.00022906772210262716,-0.00015271181473508477
1729114505058041600,5.38704150390625,0.00007635590736754239,-0.00015271181473508477,0.00038177953683771193
1729114505091374600,5.42037451171875,0,0.00007635590736754239,-0.00007635590736754239
1729114505124707600,5.45370751953125,-0.00022906772210262716,0.0004581354442052543,0.0004581354442052543
1729114505158040600,5.48704052734375,0.00022906772210262716,-0.00007635590736754239,-0.00007635590736754239
1729114505191373800,5.520373779296875,0.00007635590736754239,-0.00015271181473508477,-0.00007635590736754239
1729114505224706800,5.553706787109375,0,0.00022906772210262716,-0.00007635590736754239
1729114505258039800,5.587039794921875,0.00022906772210262716,-0.00007635590736754239,-0.00007635590736754239
1729114505291372800,5.620372802734375,-0.00038177953683771193,0.0004581354442052543,-0.00007635590736754239
1729114505324705800,5.653705810546875,0.00022906772210262716,-0.00007635590736754239,0.00030542362947016954
1729114505358038800,5.687038818359375,-0.00007635590736754239,0.00022906772210262716,-0.00007635590736754239
1729114505391371800,5.720371826171875,-0.00022906772210262716,-0.00007635590736754239,-0.00015271181473508477
1729114505424704800,5.753704833984375,0.00022906772210262716,-0.00007635590736754239,0.0004581354442052543
1729114505458037800,5.787037841796875,-0.0005344913806766272,0.00038177953683771193,-0.00015271181473508477
1729114505491371000,5.82037109375,-0.00007635590736754239,-0.00007635590736754239,-0.00015271181473508477
1729114505524704000,5.8537041015625,-0.00038177953683771193,-0.00007635590736754239,-0.0004581354442052543
1729114505558037000,5.887037109375,-0.00038177953683771193,0.0005344913806766272,-0.00015271181473508477
1729114505591370000,5.920369873046875,-0.00022906772210262716,0.00038177953683771193,-0.0006108472589403391
1729114505624703000,5.953702880859375,0.00022906772210262716,0.00022906772210262716,0.00022906772210262716
1729114505658036000,5.987035888671875,0.00022906772210262716,0.00030542362947016954,-0.00007635590736754239
1729114505691369000,6.020368896484375,0.00022906772210262716,0.0004581354442052543,-0.00007635590736754239
1729114505724702000,6.053701904296875,0.00030542362947016954,-0.00015271181473508477,-0.00007635590736754239
1729114505758035000,6.087034912109375,-0.00030542362947016954,-0.00015271181473508477,-0.00007635590736754239
1729114505791368200,6.1203681640625,-0.00007635590736754239,-0.00015271181473508477,-0.00007635590736754239
1729114505824701200,6.153701171875,0.00022906772210262716,-0.0007635590736754239,-0.00007635590736754239
1729114505858034200,6.1870341796875,0.00015271181473508477,-0.000687203137204051,-0.00007635590736754239
1729114505891367200,6.2203671875,-0.00030542362947016954,-0.00015271181473508477,-0.00007635590736754239
1729114505924700200,6.2537001953125,-0.00030542362947016954,-0.00015271181473508477,-0.00007635590736754239
1729114505958033200,6.287033203125,0.00022906772210262716,-0.00007635590736754239,0
1729114505991366100,6.3203662109375,-0.0008399150101467967,0.0004581354442052543,0.0005344913806766272
1729114506024699100,6.35369921875,-0.00030542362947016954,0.0004581354442052543,0.00030542362947016954
1729114506058032000,6.3870322265625,-0.00007635590736754239,-0.0007635590736754239,0.00038177953683771193
1729114506091365400,6.420365478515625,0.00030542362947016954,-0.00015271181473508477,0.00007635590736754239
1729114506124698400,6.453698486328125,-0.00022906772210262716,0.00038177953683771193,0
1729114506158031400,6.48703125,0.00015271181473508477,-0.00015271181473508477,-0.00007635590736754239
1729114506191364400,6.5203642578125,-0.00022906772210262716,-0.0004581354442052543,0.00030542362947016954
1729114506224697300,6.553697265625,0.00038177953683771193,-0.00007635590736754239,-0.00007635590736754239
1729114506258030300,6.5870302734375,-0.00022906772210262716,-0.00007635590736754239,-0.00007635590736754239
1729114506291363300,6.62036328125,0.00038177953683771193,-0.00007635590736754239,-0.0004581354442052543
1729114506324696300,6.6536962890625,-0.00022906772210262716,0.0005344913806766272,-0.00007635590736754239
1729114506358029300,6.687029296875,-0.00007635590736754239,0.0005344913806766272,-0.00007635590736754239
1729114506391362600,6.720362548828125,-0.00015271181473508477,0.0005344913806766272,0.0004581354442052543
1729114506424695600,6.753695556640625,-0.00022906772210262716,-0.00007635590736754239,-0.00007635590736754239
1729114506458028500,6.787028564453125,-0.00022906772210262716,0.00030542362947016954,-0.00015271181473508477
1729114506491361500,6.820361572265625,0.00038177953683771193,-0.0005344913806766272,-0.00015271181473508477
1729114506524694500,6.853694580078125,-0.00022906772210262716,-0.00007635590736754239,-0.00015271181473508477
1729114506558027500,6.887027587890625,0.00022906772210262716,0.00007635590736754239,0.0004581354442052543
1729114506591360500,6.920360595703125,-0.00022906772210262716,0.00022906772210262716,-0.00015271181473508477
1729114506624693500,6.953693603515625,0.00022906772210262716,-0.00022906772210262716,-0.00015271181473508477
1729114506658026500,6.987026611328125,-0.00022906772210262716,-0.00007635590736754239,-0.00015271181473508477
1729114506691359700,7.02035986328125,-0.00007635590736754239,0.00038177953683771193,-0.00007635590736754239
1729114506724692700,7.053692626953125,-0.00022906772210262716,-0.00007635590736754239,-0.00007635590736754239
1729114506758025700,7.087025634765625,-0.00022906772210262716,0.00007635590736754239,-0.00007635590736754239
1729114506791358700,7.120358642578125,-0.00022906772210262716,0.0004581354442052543,0.0004581354442052543
1729114506824691700,7.153691650390625,-0.00022906772210262716,-0.00022906772210262716,-0.00007635590736754239
1729114506858024700,7.187024658203125,-0.00022906772210262716,-0.00015271181473508477,-0.00007635590736754239
1729114506891357700,7.220357666015625,-0.00022906772210262716,0.00030542362947016954,0.00007635590736754239
1729114506924690700,7.253690673828125,0.00038177953683771193,-0.000687203137204051,-0.00007635590736754239
1729114506958024000,7.28702392578125,-0.00007635590736754239,-0.00015271181473508477,-0.00007635590736754239
1729114506991357000,7.32035693359375,0.00015271181473508477,0.0004581354442052543,-0.00030542362947016954
1729114507024690000,7.35368994140625,0,-0.00015271181473508477,-0.00007635590736754239
1729114507058023000,7.38702294921875,-0.00015271181473508477,0.00038177953683771193,-0.00007635590736754239
1729114507091356000,7.42035595703125,-0.00015271181473508477,-0.00022906772210262716,-0.0006108472589403391
1729114507124689000,7.45368896484375,0.00022906772210262716,-0.00015271181473508477,-0.00007635590736754239
1729114507158022000,7.48702197265625,-0.00015271181473508477,-0.00015271181473508477,-0.0004581354442052543
1729114507191355000,7.52035498046875,-0.00007635590736754239,-0.00007635590736754239,-0.00007635590736754239
1729114507224687900,7.55368798828125,-0.00007635590736754239,-0.0006108472589403391,-0.00007635590736754239
1729114507258021000,7.587021240234375,0.00022906772210262716,-0.00007635590736754239,-0.00007635590736754239
1729114507291354000,7.62035400390625,0.00022906772210262716,-0.0004581354442052543,0
1729114507324687000,7.65368701171875,-0.00015271181473508477,-0.00007635590736754239,0
1729114507358020000,7.68702001953125,-0.000687203137204051,-0.00007635590736754239,0
1729114507391353000,7.72035302734375,-0.00015271181473508477,0.00030542362947016954,0
1729114507424686000,7.75368603515625,-0.00015271181473508477,0.00030542362947016954,0
1729114507458019000,7.78701904296875,0,0.0004581354442052543,0
1729114507491352000,7.82035205078125,-0.00015271181473508477,0.0005344913806766272,0
1729114507524685000,7.85368505859375,0.00030542362947016954,0,-0.00015271181473508477
1729114507558018300,7.887018310546875,0.00015271181473508477,0.00030542362947016954,0.00007635590736754239
1729114507591351300,7.920351318359375,-0.00015271181473508477,0.0006108472589403391,0.00007635590736754239
1729114507624684300,7.953684326171875,-0.00015271181473508477,0,0.00007635590736754239
1729114507658017300,7.987017333984375,-0.00015271181473508477,0,0.00007635590736754239
1729114507691350300,8.020350341796876,0.00015271181473508477,-0.00030542362947016954,0.00038177953683771193
1729114507724683300,8.053683349609376,0.00030542362947016954,0.00038177953683771193,-0.00007635590736754239
1729114507758016300,8.087016357421875,0.0004581354442052543,-0.00007635590736754239,0.00007635590736754239
1729114507791349200,8.120349365234375,0.00030542362947016954,-0.00007635590736754239,0.00022906772210262716
1729114507824682200,8.15368212890625,-0.00015271181473508477,0.00022906772210262716,0.00007635590736754239
1729114507858015500,8.187015380859375,-0.00015271181473508477,-0.00007635590736754239,0.00022906772210262716
1729114507891348500,8.220348388671875,-0.00015271181473508477,0.0004581354442052543,0.00007635590736754239
1729114507924681500,8.253681396484374,0.00038177953683771193,0.00038177953683771193,0.0005344913806766272
1729114507958014500,8.287014404296874,0.0007635590736754239,-0.00015271181473508477,0.00038177953683771193
1729114507991347500,8.320347412109374,0.0004581354442052543,-0.0009162708884105086,0.001985253533348441
1729114508024680400,8.353680419921876,0.00038177953683771193,-0.0038941511884331703,0.006261184345930815
1729114508058013400,8.387013427734376,-0.0032833039294928312,-0.005497625097632408,0.007941014133393764
1729114508091346400,8.420346435546875,-0.0004581354442052543,-0.01175880990922451,0.013362283818423748
1729114508124679400,8.453679443359375,-0.024433890357613564,0.010231691412627697,0.0023670331574976444
1729114508158012700,8.4870126953125,-0.07933378964662552,0.000687203137204051,-0.00022906772210262716
1729114508191345700,8.520345703125,-0.09292513877153397,-0.005879404954612255,0.02008160389959812
1729114508224678700,8.5536787109375,-0.09865183383226395,-0.0016798300202935934,0.013514995574951172
1729114508258011600,8.58701171875,-0.10949437320232391,0.001985253533348441,0.013896775431931019
1729114508291344600,8.6203447265625,-0.13354648649692535,-0.0036650835536420345,0.018707197159528732
1729114508324677600,8.653677734375,-0.1372879147529602,0.002748812548816204,0.019241688773036003
1729114508358010600,8.6870107421875,-0.1695101112127304,0.010995250195264816,0.018554486334323883
1729114508391343600,8.720343505859375,-0.22540263831615448,-0.014049487188458443,0.028633465990424156
1729114508424676600,8.753676513671875,-0.1483595222234726,0.011529741808772087,-0.018936265259981155
1729114508458009900,8.787009765625,-0.1086544543504715,0.009544488042593002,-0.004504998680204153
1729114508491342800,8.8203427734375,-0.15003935992717743,-0.022066857665777206,0.014965757727622986
1729114508524675800,8.85367578125,-0.20188501477241516,-0.004352286923676729,0.012751436792314053
1729114508558008800,8.8870087890625,-0.19989976286888123,-0.006108472589403391,0.015958385542035103
1729114508591341800,8.920341796875,-0.1629435122013092,0.03436015918850899,0.03245126083493233
1729114508624674800,8.9536748046875,-0.13889139890670776,-0.0034360159188508987,-0.02435753494501114
1729114508658007800,8.9870078125,-0.12003148347139359,0.024281177669763565,-0.020157959312200546
1729114508691340800,9.0203408203125,-0.11010521650314331,0.005726693198084831,-0.10292776674032211
1729114508724673800,9.053673828125,-0.09536852687597275,0.011300674639642239,0.016187451779842377
1729114508758007000,9.087007080078125,-0.10201149433851242,-0.03443651273846626,-0.0686439573764801
1729114508791340000,9.120340087890625,-0.1292705535888672,-0.06520794332027435,0.03978142887353897
1729114508824673000,9.153673095703125,-0.08483141660690308,-0.03168770298361778,0.027029991149902344
1729114508858006000,9.187006103515625,-0.10880716890096664,0.03176405653357506,-0.04886778071522713
1729114508891339000,9.220339111328125,-0.05787777900695801,0.007177455350756645,0.03497100621461868
1729114508924672000,9.253672119140624,0.014660334214568138,-0.00862821750342846,0.00908635277301073
1729114508958005000,9.2870048828125,0.024281177669763565,-0.022524992004036903,-0.04222481697797775
1729114508991338000,9.320337890625,0.06933116167783737,-0.019394399598240852,0.04818057641386986
1729114509024671000,9.3536708984375,0.11743538826704025,-0.03176405653357506,0.017561858519911766
1729114509058004200,9.387004150390625,0.15026842057704926,-0.01779092662036419,-0.0019088976550847292
1729114509091337200,9.420337158203125,0.21830153465270996,-0.004199574701488018,-0.0164165198802948
1729114509124670200,9.453670166015625,0.35169529914855957,0.00916270911693573,0.0650552362203598
1729114509158003200,9.487003173828125,0.4026246964931488,0.0456608310341835,0.02901524491608143
1729114509191336200,9.520336181640625,0.4401918053627014,0.03871244564652443,0.010537114925682545
1729114509224669200,9.553669189453124,0.45775365829467773,0.038788799196481705,0.023059483617544174
1729114509258002200,9.587002197265624,0.4324798583984375,0.009315420873463154,0.07689040154218674
1729114509291335200,9.620335205078124,0.38124504685401917,0.06704048812389374,0.05085303261876106
1729114509324668400,9.65366845703125,0.34848836064338684,0.048638712614774704,-0.06139015033841133
1729114509358001400,9.68700146484375,0.3279486298561096,0.043141089379787445,0.03687990456819534
1729114509391334400,9.72033447265625,0.32634514570236206,-0.015576604753732681,0.0008399150101467967
1729114509424667400,9.75366748046875,0.3357369303703308,-0.04856235533952713,-0.10292776674032211
1729114509458000400,9.78700048828125,0.34879377484321594,-0.031916771084070206,-0.012904148548841476
1729114509491333400,9.82033349609375,0.3788016438484192,0.012293301522731781,-0.0014507622690871358
1729114509524666400,9.853666259765625,0.31863319873809814,-0.021303297951817513,-0.06245913356542587
1729114509557999400,9.886999267578124,0.2725905776023865,-0.03229855000972748,-0.07528692483901978
1729114509591332400,9.920332275390624,0.2602209448814392,-0.050013117492198944,-0.0010689827613532543
1729114509624665600,9.95366552734375,0.2193705290555954,-0.01954711228609085,-0.022066857665777206
1729114509657998600,9.98699853515625,0.1889045089483261,0.018401773646473885,-0.0811663269996643
1729114509691331600,10.02033154296875,0.23433628678321838,0.035200074315071106,0.17615307867527008
1729114509724664600,10.05366455078125,0.15095563232898712,0.043141089379787445,0.03382566571235657
1729114509757997600,10.08699755859375,0.15988926589488983,-0.012369656935334206,0.006642963737249374
1729114509791330600,10.12033056640625,0.07666133344173431,-0.046577103435993195,0.11002886295318604
1729114509824663600,10.15366357421875,0.1510319858789444,0.03199312463402748,0.0528382882475853
1729114509857996500,10.18699658203125,0.09093988686800003,-0.03565821051597595,-0.008704573847353458
1729114509891329500,10.22032958984375,0.06390989571809769,-0.04375193640589714,-0.024128466844558716
1729114509924662800,10.253662841796874,0.08040276914834976,0.004428642801940441,0.030160583555698395
1729114509957995800,10.286995849609376,0.05123481526970863,0.010308047756552696,-0.03993413969874382
1729114509991328800,10.320328857421876,0.06169557198882103,-0.00022906772210262716,-0.0791047215461731
1729114510024661800,10.353661865234375,0.06642963737249374,0.02901524491608143,0.023441264405846596
1729114510057994800,10.386994873046875,0.05657972767949104,0.0029015245381742716,-0.06612421572208405
1729114510091327700,10.42032763671875,-0.0065666078589856625,-0.0429883748292923,-0.013285927474498749
1729114510124660700,10.45366064453125,0.033978380262851715,-0.018019994720816612,-0.08521319180727005
1729114510157993700,10.48699365234375,0.014049487188458443,-0.00992626789957285,-0.01885990984737873
1729114510191326700,10.52032666015625,0.009315420873463154,-0.06551336497068405,-0.024586603045463562
1729114510224660000,10.553659912109374,0.020157959312200546,-0.08460234850645065,0.025884652510285378
1729114510257993000,10.586992919921874,0.01847812905907631,0.00022906772210262716,0.052456509321928024
1729114510291326000,10.620325927734376,0.03023693896830082,-0.009391776286065578,-0.05154023692011833
1729114510324659000,10.653658935546876,0.014049487188458443,-0.016798298805952072,-0.03268032893538475
1729114510357992000,10.686991943359375,0.06360447406768799,0.042759306728839874,-0.04932591691613197
1729114510391325000,10.720324951171875,-0.04947862774133682,-0.005879404954612255,-0.07368344813585281
1729114510424658000,10.753657958984375,-0.05963396281003952,0.0016034740256145597,-0.041232191026210785
1729114510457991000,10.786990966796875,-0.09575030952692032,0.04886778071522713,0.031534988433122635
1729114510491324000,10.820323974609375,-0.1414874941110611,0.051769305020570755,-0.05100574716925621
1729114510524657200,10.8536572265625,-0.15507884323596954,0.02283041551709175,0.01382041908800602
1729114510557990100,10.886990234375,-0.14133478701114655,0.07994463294744492,0.007788302376866341
1729114510591323100,10.9203232421875,-0.15065020322799683,0.05405998229980469,0.04321744292974472
1729114510624656100,10.95365625,-0.19623468816280365,-0.014583977870643139,0.010155336000025272
1729114510657989000,10.986989013671876,-0.17386239767074585,0.06978929787874222,0.11781716346740723
1729114510691322000,11.020322021484375,-0.1719534993171692,-0.024281177669763565,0.04283566400408745
1729114510724655000,11.053655029296875,-0.2154763638973236,-0.06345175951719284,0.0811663269996643
1729114510757988000,11.086988037109375,-0.15561333298683167,0.023212196305394173,0.028404397889971733
1729114510791321000,11.120321044921875,-0.23830679059028625,0.018936265259981155,0.05688514932990074
1729114510824654300,11.153654296875,-0.25052374601364136,-0.026190076023340225,-0.00992626789957285
1729114510857987300,11.1869873046875,-0.20661908388137817,-0.0008399150101467967,0.02901524491608143
1729114510891320300,11.2203203125,-0.2292204350233078,0.04741701856255531,-0.011682453565299511
1729114510924653300,11.2536533203125,-0.23991025984287262,-0.02214321307837963,-0.045737188309431076
1729114510957986300,11.286986328125,-0.20738264918327332,-0.03176405653357506,0.017332790419459343
1729114510991319300,11.3203193359375,-0.17470231652259827,-0.006261184345930815,-0.018707197159528732
1729114511024652300,11.35365234375,-0.1730988472700119,-0.0361163429915905,-0.03161134570837021
1729114511057985300,11.3869853515625,-0.1934095174074173,-0.043828289955854416,-0.04993676394224167
1729114511091318300,11.420318359375,-0.16469968855381012,-0.0068720318377017975,-0.08780929446220398
1729114511124651500,11.453651611328125,-0.15652960538864136,-0.007101099472492933,-0.13331741094589233
1729114511157984500,11.486984619140625,-0.1766875684261322,-0.00038177953683771193,-0.11178504675626755
1729114511191317500,11.5203173828125,-0.1316375881433487,0.043141089379787445,-0.10789089649915695
1729114511224650500,11.553650390625,-0.12323843687772751,0.01954711228609085,-0.005344913341104984
1729114511257983500,11.5869833984375,-0.07734853774309158,-0.018249060958623886,-0.006261184345930815
1729114511291316500,11.62031640625,-0.043293800204992294,0.010308047756552696,0.033596597611904144
1729114511324649500,11.6536494140625,-0.06497887521982193,0.040392275899648666,0.025731941685080528
1729114511357982500,11.686982421875,-0.040697697550058365,0.06291726976633072,0.021150587126612663
1729114511391315500,11.7203154296875,-0.01695101149380207,0.07505785673856735,0.03527642786502838
1729114511424648700,11.753648681640625,-0.02283041551709175,0.046577103435993195,0.035505495965480804
1729114511457981700,11.786981689453125,-0.0390942245721817,0.018249060958623886,-0.0012216945178806782
1729114511491314700,11.820314697265625,-0.008933641016483307,0.007788302376866341,0.036574479192495346
1729114511524647700,11.853647705078124,-0.0037414394319057465,0.01748550310730934,0.04825693368911743
1729114511557980700,11.886980712890624,-0.006184828467667103,0.03779617324471474,0.024281177669763565
1729114511591313700,11.920313720703126,-0.011682453565299511,0.01626380905508995,0.006337540224194527
1729114511624646700,11.953646728515626,0.0029015245381742716,-0.05864133685827255,0.027793550863862038
1729114511657979600,11.986979736328125,0.018401773646473885,-0.01916533336043358,0.06887302547693253
1729114511691313000,12.02031298828125,0.02557922899723053,0.02641914412379265,0.03245126083493233
1729114511724646000,12.05364599609375,-0.007635590620338917,0.03405473381280899,0.04818057641386986
1729114511757979000,12.086978759765625,0.002061609411612153,0.01511846948415041,0.05795413255691528
1729114511791312000,12.120311767578125,-0.0032833039294928312,0.013591351918876171,0.0011453386396169662
1729114511824644900,12.153644775390624,0,0.029855160042643547,0.02008160389959812
1729114511857977900,12.186977783203124,0.012827792204916477,0.03176405653357506,-0.016798298805952072
1729114511891310800,12.220310791015624,0.016034740954637527,0.03817795217037201,0.023059483617544174
1729114511924643800,12.253643798828126,0.025884652510285378,0.023441264405846596,-0.008704573847353458
1729114511957976800,12.286976806640626,0.0018325417768210173,0.03214583545923233,-0.019318044185638428
1729114511991310000,12.32031005859375,0.0018325417768210173,0.010995250195264816,-0.02367033064365387
1729114512024643000,12.35364306640625,0.004504998680204153,0.0006108472589403391,-0.014278554357588291
1729114512057976000,12.38697607421875,0.011071606539189816,0.012216945178806782,-0.013362283818423748
1729114512091309000,12.42030908203125,-0.004886778071522713,0.004504998680204153,-0.015347537584602833
1729114512124642000,12.45364208984375,0.0029015245381742716,-0.011682453565299511,0.009544488042593002
1729114512157975000,12.48697509765625,0.01435491070151329,-0.015347537584602833,0.007101099472492933
1729114512191308000,12.52030810546875,-0.007788302376866341,-0.006642963737249374,0.00786465872079134
1729114512224641000,12.55364111328125,-0.0032833039294928312,-0.02023431472480297,0.010918894782662392
1729114512257974000,12.58697412109375,0.005726693198084831,-0.022906772792339325,0.01626380905508995
1729114512291307300,12.620307373046876,-0.0038177953101694584,-0.0295497365295887,0.017714571207761765
1729114512324640300,12.65364013671875,-0.002748812548816204,-0.049020491540431976,0.02733541466295719
1729114512357973200,12.68697314453125,0.00259610079228878,-0.06849125027656555,0.03451287001371384
1729114512391306200,12.72030615234375,0.0038941511884331703,-0.08192989230155945,0.03993413969874382
1729114512424639200,12.75363916015625,0.008857285603880882,-0.08093725889921188,0.03764346241950989
1729114512457972200,12.78697216796875,-0.0023670331574976444,-0.028557108715176582,0.008857285603880882
1729114512491305200,12.82030517578125,-0.00916270911693573,0.02092151902616024,-0.0025197449140250683
1729114512524638200,12.85363818359375,-0.0004581354442052543,0.0022143214009702206,-0.0038941511884331703
1729114512557971200,12.88697119140625,0.0011453386396169662,-0.006719320081174374,0.0032069480512291193
1729114512591304400,12.920304443359376,0.0022906772792339325,0.007482878863811493,-0.004352286923676729
1729114512624637400,12.953637451171875,-0.0009926267666742206,0.0012216945178806782,-0.0015271181473508477
1729114512657970400,12.986970458984375,-0.0009926267666742206,-0.0015271181473508477,-0.0005344913806766272
1729114512691303400,13.020303466796875,0.0035887276753783226,0.0016798300202935934,-0.0005344913806766272
1729114512724636400,13.053636474609375,0.0025197449140250683,-0.0009926267666742206,0.0021379655227065086
1729114512757969400,13.086969482421875,-0.0019088976550847292,-0.0008399150101467967,0.0011453386396169662
1729114512791302400,13.120302490234375,-0.00007635590736754239,-0.00038177953683771193,0.0009162708884105086
1729114512824635400,13.153635498046874,0.0021379655227065086,-0.000687203137204051,-0.00007635590736754239
1729114512857968400,13.186968505859374,0,-0.00015271181473508477,-0.00007635590736754239
1729114512891301600,13.220301513671876,-0.0006108472589403391,-0.00015271181473508477,-0.0004581354442052543
1729114512924634600,13.253634521484376,0.00007635590736754239,0.0007635590736754239,-0.0004581354442052543
1729114512957967600,13.286967529296875,-0.00015271181473508477,-0.0006108472589403391,-0.00007635590736754239
1729114512991300600,13.320300537109375,0.00038177953683771193,0.0004581354442052543,-0.00007635590736754239
1729114513024633600,13.353633544921875,0,0.0004581354442052543,-0.0004581354442052543
1729114513057966600,13.386966552734375,-0.005879404954612255,0.0015271181473508477,-0.000687203137204051
1729114513091299600,13.420299560546875,-0.01832541823387146,0.004123218823224306,-0.002061609411612153
1729114513124632600,13.453632568359374,-0.023823043331503868,0.0029778804164379835,-0.001374406274408102
1729114513157965600,13.486965576171874,-0.04756972938776016,-0.0036650835536420345,0.007101099472492933
1729114513191298800,13.520298828125,-0.07207997888326645,0.01817270554602146,-0.01832541823387146
1729114513224631800,13.5536318359375,-0.1366770714521408,-0.013438640162348747,0.01038440316915512
1729114513257964800,13.58696484375,-0.2697654068470001,-0.013285927474498749,0.0038177953101694584
1729114513291297800,13.6202978515625,-0.45859357714653015,-0.009391776286065578,0.008857285603880882
1729114513324630800,13.653630859375,-0.733474850654602,0.0016034740256145597,0.004199574701488018
1729114513357963800,13.6869638671875,-1.0356152057647705,-0.0021379655227065086,0.0067956759594380856
1729114513391296800,13.720296875,-1.3240877389907837,-0.01969982497394085,0.017027366906404495
1729114513424629800,13.753629638671875,-1.5504066944122314,-0.024281177669763565,0.018554486334323883
1729114513457962800,13.786962646484374,-1.7160990238189697,-0.015958385542035103,0.011453386396169662
1729114513491296000,13.8202958984375,-1.8041373491287231,-0.01122431829571724,0.008322793990373611
1729114513524629000,13.85362890625,-1.8497982025146484,0.00030542362947016954,0.010231691412627697
1729114513557962000,13.8869619140625,-1.8373521566390991,0.007711946498602629,0.0035123717971146107
1729114513591295000,13.920294921875,-1.7870336771011353,0.01832541823387146,0.004504998680204153
1729114513624628000,13.9536279296875,-1.7086925506591797,0.015576604753732681,0.003970507066696882
1729114513657961000,13.9869609375,-1.6303513050079346,0.007635590620338917,0.013133215717971325
1729114513691294000,14.0202939453125,-1.5659832954406738,0.00786465872079134,0.009697199799120426
1729114513724627000,14.053626953125,-1.5050512552261353,0.0295497365295887,0.0018325417768210173
1729114513757960000,14.0869599609375,-1.4392324686050415,0.02367033064365387,0.005803049076348543
1729114513791293200,14.120293212890624,-1.3925026655197144,0.020463382825255394,0.009697199799120426
1729114513824626200,14.153626220703124,-1.3644800186157227,0.004123218823224306,0.01175880990922451
1729114513857959200,14.186959228515626,-1.3738718032836914,0.012293301522731781,0.010078979656100273
1729114513891292200,14.220292236328126,-1.3860124349594116,0.010308047756552696,0.012216945178806782
1729114513924625200,14.253625244140625,-1.4185400009155273,0.01817270554602146,0.01122431829571724
1729114513957958100,14.286958251953125,-1.4619865417480469,0.025197450071573257,0.01122431829571724
1729114513991291100,14.320291015625,-1.498408317565918,0.015194825828075409,0.018249060958623886
1729114514024624000,14.3536240234375,-1.542236566543579,0.010308047756552696,0.019088976085186005
1729114514057957400,14.386957275390625,-1.6101933717727661,0.02008160389959812,0.01847812905907631
1729114514091290400,14.420290283203125,-1.6434845924377441,0.00519220158457756,0.025350160896778107
1729114514124623400,14.453623291015624,-1.6774629354476929,-0.0023670331574976444,0.02214321307837963
1729114514157956400,14.486956298828124,-1.6676130294799805,0.00862821750342846,0.021303297951817513
1729114514191289300,14.520289306640626,-1.673492431640625,-0.011911521665751934,0.021379653364419937
1729114514224622300,14.553622314453126,-1.663413405418396,-0.0064902519807219505,0.02420482225716114
1729114514257955300,14.586955322265625,-1.6700564622879028,0.007253811229020357,0.0165692325681448
1729114514291288300,14.620288330078125,-1.637452483177185,0.0037414394319057465,0.023975754156708717
1729114514324621300,14.653621337890625,-1.612713098526001,0.008780929259955883,0.019241688773036003
1729114514357954600,14.68695458984375,-1.6069101095199585,0.013514995574951172,0.02244863659143448
1729114514391287600,14.72028759765625,-1.6108806133270264,0.014889402315020561,0.02053973823785782
1729114514424620500,14.75362060546875,-1.6253881454467773,0.007711946498602629,0.023288551717996597
1729114514457953500,14.78695361328125,-1.607062816619873,0.006413896102458239,0.021914144977927208
1729114514491286500,14.82028662109375,-1.5988163948059082,0.005344913341104984,0.031076854094862938
1729114514524619500,14.85361962890625,-1.5650670528411865,0.0065666078589856625,0.02244863659143448
1729114514557952500,14.886952392578126,-1.5658305883407593,0.004581354558467865,0.018249060958623886
1729114514591285500,14.920285400390625,-1.5647616386413574,-0.00015271181473508477,0.025350160896778107
1729114514624618500,14.953618408203125,-1.5700302124023438,0.005268557462841272,0.018936265259981155
1729114514657951700,14.98695166015625,-1.566365122795105,0.007101099472492933,0.01817270554602146
1729114514691284700,15.02028466796875,-1.5593403577804565,0.0012216945178806782,0.022372281178832054
1729114514724617700,15.05361767578125,-1.550253987312317,0.01763821393251419,0.022524992004036903
1729114514757950700,15.08695068359375,-1.5395641326904297,-0.019088976085186005,0.0390942245721817
1729114514791283700,15.12028369140625,-1.5090217590332031,0.001985253533348441,0.02244863659143448
1729114514824616700,15.15361669921875,-1.5209332704544067,-0.008017370477318764,0.027029991149902344
1729114514857949700,15.18694970703125,-1.5061966180801392,0.01252236869186163,0.02008160389959812
1729114514891282700,15.22028271484375,-1.5285688638687134,-0.02435753494501114,0.036574479192495346
1729114514924615700,15.25361572265625,-1.5346773862838745,-0.00992626789957285,0.026877280324697495
1729114514957949000,15.286948974609375,-1.531394124031067,-0.005726693198084831,0.015576604753732681
1729114514991282000,15.320281982421875,-1.4987901449203491,-0.00992626789957285,0.01588202826678753
1729114515024615000,15.353614990234375,-1.4329713582992554,-0.027946261689066887,0.023899398744106293
1729114515057948000,15.386947998046875,-1.3122526407241821,-0.00862821750342846,0.012675080448389053
1729114515091281000,15.420281005859374,-1.1044882535934448,0,0.009620844386518002
1729114515124614000,15.45361376953125,-0.8695410490036011,0.0024433890357613564,0.009239064529538155
1729114515157947000,15.48694677734375,-0.6274928450584412,-0.0018325417768210173,0.005879404954612255
1729114515191279900,15.52027978515625,-0.38223767280578613,-0.0022906772792339325,0.007024743594229221
1729114515224612900,15.55361279296875,-0.2360924631357193,-0.00030542362947016954,0.00129805039614439
1729114515257946000,15.586946044921875,-0.15263545513153076,-0.005726693198084831,0.005268557462841272
1729114515291279000,15.620279052734375,-0.031382277607917786,-0.0032833039294928312,0.0030542362947016954
1729114515324612000,15.653612060546875,0.024128466844558716,0.0005344913806766272,-0.0006108472589403391
1729114515357945000,15.686945068359375,-0.005955760832875967,-0.00015271181473508477,0.0017561858985573053
1729114515391278000,15.720278076171875,-0.013133215717971325,-0.0016798300202935934,-0.00015271181473508477
1729114515424611000,15.753611083984374,0.007024743594229221,0.001374406274408102,-0.00022906772210262716
1729114515457944000,15.786944091796874,-0.004734066314995289,0,-0.000687203137204051
1729114515491277000,15.820277099609376,0.0009926267666742206,0.0006108472589403391,-0.000687203137204051
1729114515524610000,15.853610107421876,0.002061609411612153,0.0011453386396169662,-0.0009926267666742206
1729114515557943300,15.886943359375,-0.002672456670552492,-0.00015271181473508477,-0.0005344913806766272
1729114515591276300,15.9202763671875,0.0016798300202935934,0.0010689827613532543,-0.000687203137204051
1729114515624609300,15.953609375,-0.0038177953101694584,0.00030542362947016954,-0.0005344913806766272
1729114515657942300,15.9869423828125,-0.04421006888151169,0.008551862090826035,-0.0028251686599105597
1729114515691275300,16.020275146484376,-0.15217731893062592,0.015576604753732681,-0.006184828467667103
1729114515724608300,16.053608154296874,-0.34940463304519653,0.02626643143594265,-0.008170082233846188
1729114515757941200,16.086941162109376,-0.6367319226264954,0.004504998680204153,0.0036650835536420345
1729114515791274200,16.120274169921874,-0.7865421772003174,-0.07956285774707794,0.03626905754208565
1729114515824607200,16.153607177734376,-0.6921663284301758,-0.02901524491608143,0.013744063675403595
1729114515857940500,16.1869404296875,-0.4792860448360443,0.017714571207761765,0.0005344913806766272
1729114515891273500,16.2202734375,-0.24601873755455017,0.033443886786699295,-0.010842538438737392
1729114515924606500,16.2536064453125,-0.10468395054340363,-0.012980503961443901,0.007024743594229221
1729114515957939500,16.286939453125,-0.0050394898280501366,-0.009620844386518002,0.002748812548816204
1729114515991272400,16.3202724609375,0.011606098152697086,0.012675080448389053,-0.005803049076348543
1729114516024605400,16.35360546875,-0.012064233422279358,-0.0037414394319057465,0.00129805039614439
1729114516057938400,16.3869384765625,0.0022906772792339325,-0.0009926267666742206,-0.0011453386396169662
1729114516091271400,16.420271484375,0.000687203137204051,0.006108472589403391,-0.0022906772792339325
1729114516124604400,16.4536044921875,-0.022906772792339325,0.0006108472589403391,-0.0017561858985573053
1729114516157937700,16.486937744140626,-0.14851224422454834,0.03588727489113808,-0.012446013279259205
1729114516191270700,16.520270751953124,-0.343525230884552,0.021837789565324783,-0.007788302376866341
1729114516224603600,16.553603759765625,-0.5677825212478638,-0.010995250195264816,0.007406522985547781
1729114516257936600,16.5869365234375,-0.6126034259796143,-0.07307260483503342,0.037948887795209885
1729114516291269600,16.62026953125,-0.5241069197654724,0.006948387715965509,-0.0009162708884105086
1729114516324602600,16.6536025390625,-0.3304683566093445,0.005497625097632408,0.004657710436731577
1729114516357935600,16.686935546875,-0.17928366363048553,0.008399149402976036,-0.0035887276753783226
1729114516391268600,16.7202685546875,-0.055052608251571655,-0.006948387715965509,0.0030542362947016954
1729114516424601600,16.7536015625,0.005879404954612255,-0.0006108472589403391,0.0007635590736754239
1729114516457934800,16.786934814453126,0.001985253533348441,0.004199574701488018,-0.0006108472589403391
1729114516491267800,16.820267822265624,-0.010231691412627697,-0.004810422193259001,0.0009162708884105086
1729114516524600800,16.853600830078125,0.0037414394319057465,0.0035887276753783226,-0.00129805039614439
1729114516557933800,16.886933837890624,-0.0022906772792339325,0.000687203137204051,-0.000687203137204051
1729114516591266800,16.920266845703125,-0.0010689827613532543,-0.0008399150101467967,-0.00022906772210262716
1729114516624599800,16.953599853515627,0.001374406274408102,0.002672456670552492,-0.000687203137204051
1729114516657932800,16.986932861328125,-0.0018325417768210173,-0.0012216945178806782,0.00038177953683771193
1729114516691265800,17.020265869140626,0.00038177953683771193,0.0004581354442052543,-0.00007635590736754239
1729114516724599000,17.05359912109375,-0.00030542362947016954,-0.00030542362947016954,0.00022906772210262716
1729114516757932000,17.08693212890625,-0.00015271181473508477,-0.0004581354442052543,0.0005344913806766272
1729114516791265000,17.12026513671875,0.00030542362947016954,0.0007635590736754239,-0.00007635590736754239
1729114516824598000,17.153597900390626,-0.00015271181473508477,-0.000687203137204051,0.0005344913806766272
1729114516857931000,17.186930908203124,0.0009162708884105086,0,-0.00038177953683771193
1729114516891264000,17.220263916015625,-0.00015271181473508477,-0.002061609411612153,0.0034360159188508987
1729114516924597000,17.253596923828123,-0.00038177953683771193,-0.005268557462841272,0.0035123717971146107
1729114516957930000,17.286929931640625,-0.0016034740256145597,-0.0032069480512291193,0.0007635590736754239
1729114516991263000,17.320262939453126,-0.015500249341130257,-0.0051158457063138485,0.006413896102458239
1729114517024596200,17.35359619140625,-0.05230379477143288,-0.0012216945178806782,0.0007635590736754239
1729114517057929200,17.38692919921875,-0.10140064358711243,-0.0035123717971146107,0.00129805039614439
1729114517091262200,17.42026220703125,-0.12232216447591782,0.004428642801940441,-0.004428642801940441
1729114517124595200,17.45359521484375,-0.1435490995645523,-0.0023670331574976444,-0.00038177953683771193
1729114517157928200,17.48692822265625,-0.154926136136055,-0.013133215717971325,0.008780929259955883
1729114517191261200,17.52026123046875,-0.15156647562980652,-0.0165692325681448,0.01046075951308012
1729114517224594200,17.55359423828125,-0.13889139890670776,0.004428642801940441,-0.00007635590736754239
1729114517257927200,17.58692724609375,-0.15439164638519287,-0.01626380905508995,0.006948387715965509
1729114517291260200,17.62026025390625,-0.1599656194448471,0.022754060104489326,-0.0021379655227065086
1729114517324593400,17.653593505859376,-0.16172181069850922,0.02924431301653385,0.002748812548816204
1729114517357926400,17.686926513671875,-0.19692188501358032,0.03161134570837021,0.015347537584602833
1729114517391259400,17.72025927734375,-0.16767756640911102,0.05337277799844742,0.014583977870643139
1729114517424592400,17.75359228515625,-0.15347537398338318,0.013209572061896324,0.022677704691886902
1729114517457925400,17.78692529296875,-0.18913358449935913,-0.0034360159188508987,0.04787515476346016
1729114517491258400,17.82025830078125,-0.2176143378019333,0.01572931744158268,0.05543438717722893
1729114517524591400,17.85359130859375,-0.1949366331100464,0.006948387715965509,0.033443886786699295
1729114517557924400,17.88692431640625,-0.1572931706905365,-0.018783552572131157,0.028786176815629005
1729114517591257300,17.92025732421875,-0.13866232335567474,-0.022906772792339325,0.009697199799120426
1729114517624590600,17.953590576171877,-0.13744063675403595,0.051082100719213486,0.09567394852638245
1729114517657923600,17.986923583984375,-0.16660858690738678,-0.02504473738372326,0.014813045971095562
1729114517691256600,18.020256591796876,-0.09368869662284851,0.003970507066696882,-0.007024743594229221
1729114517724589600,18.053589599609374,-0.072232685983181,0.0010689827613532543,0.027869906276464462
1729114517757922600,18.086922607421876,-0.06780404597520828,-0.027029991149902344,0.026571854948997498
1729114517791255600,18.120255615234374,-0.09376505762338638,0.05993938818573952,0.10063708573579788
1729114517824588500,18.153588623046875,-0.0680331140756607,0.014660334214568138,0.022754060104489326
1729114517857921500,18.186921630859374,-0.049020491540431976,-0.004352286923676729,0.021837789565324783
1729114517891254500,18.220254638671875,0.011529741808772087,0.03061871975660324,0.01626380905508995
1729114517924587800,18.253587890625,0.014049487188458443,0.09071081876754761,-0.031916771084070206
1729114517957920800,18.286920654296875,0.06574243307113647,0.03077143058180809,-0.024128466844558716
1729114517991253800,18.320253662109376,0.0686439573764801,0.0011453386396169662,-0.0231358390301466
1729114518024586800,18.353586669921874,0.12110047042369843,0.03924693539738655,0.01817270554602146
1729114518057919700,18.386919677734376,0.11422843486070633,0.0012216945178806782,-0.05566345527768135
1729114518091252700,18.420252685546874,0.1181989461183548,-0.03749075159430504,-0.15568970143795013
1729114518124585700,18.453585693359376,0.13598987460136414,-0.028480753302574158,-0.07085828483104706
1729114518157918700,18.486918701171874,0.14583978056907654,-0.0626882016658783,-0.09109259396791458
1729114518191251700,18.520251708984375,0.16851748526096344,-0.07116370648145676,-0.13889139890670776
1729114518224585000,18.5535849609375,0.16546325385570526,-0.02160872146487236,-0.04558447748422623
1729114518257918000,18.58691796875,0.154926136136055,0.06047387793660164,-0.0038177953101694584
1729114518291251000,18.6202509765625,0.14011308550834656,0.023899398744106293,-0.07085828483104706
1729114518324584000,18.653583984375,0.1555369794368744,-0.012446013279259205,-0.021150587126612663
1729114518357917000,18.6869169921875,0.16912832856178284,-0.04504998400807381,-0.03680354729294777
1729114518391250000,18.72025,0.16378341615200043,-0.0024433890357613564,0.00992626789957285
1729114518424583000,18.7535830078125,0.16286714375019073,-0.03718532621860504,-0.02748812735080719
1729114518457916000,18.786916015625,0.17027367651462555,-0.023746687918901443,0.053830914199352264
1729114518491249000,18.820248779296875,0.17294612526893616,-0.02229592576622963,0.06917845457792282
1729114518524582100,18.85358203125,0.16935740411281586,-0.03245126083493233,0.011300674639642239
1729114518557915100,18.8869150390625,0.18814095854759216,0.020692450925707817,0.10712733864784241
1729114518591248100,18.920248046875,0.17951273918151855,0.023823043331503868,0.008933641016483307
1729114518624581000,18.9535810546875,0.13324105739593506,0.04886778071522713,0.029778804630041122
1729114518657914000,18.9869140625,0.154926136136055,-0.023212196305394173,0.046729814261198044
1729114518691247000,19.0202470703125,0.1701209545135498,0.0012216945178806782,0.04405735805630684
1729114518724580000,19.053580078125,0.15584240853786469,0.0165692325681448,0.021990500390529633
1729114518757913000,19.0869130859375,0.120871402323246,0.05467082932591438,0.011682453565299511
1729114518791246000,19.12024609375,0.11415208131074905,0.007101099472492933,0.013438640162348747
1729114518824579300,19.153579345703125,0.10338589549064636,-0.012827792204916477,-0.05062396824359894
1729114518857912300,19.186912353515623,0.07345438003540039,-0.026571854948997498,-0.022677704691886902
1729114518891245300,19.220245361328125,0.10659284889698029,0.12522368133068085,0.03978142887353897
1729114518924578300,19.253578369140627,0.026724567636847496,0.09979717433452606,-0.12514732778072357
1729114518957911300,19.286911376953125,0.011606098152697086,0.04840964451432228,-0.002672456670552492
1729114518991244300,19.320244384765626,0.038636088371276855,0.032756682485342026,-0.024968381971120834
1729114519024577300,19.353577392578124,0.07711946964263916,-0.007635590620338917,-0.0462716780602932
1729114519057910300,19.38691015625,-0.0004581354442052543,-0.03145863488316536,0.005268557462841272
1729114519091243500,19.420243408203124,0.026724567636847496,-0.03649812191724777,0.009697199799120426
1729114519124576500,19.453576416015625,0.03779617324471474,-0.04879142343997955,0.01748550310730934
1729114519157909500,19.486909423828124,0.026037365198135376,-0.06940752267837524,-0.033291175961494446
1729114519191242500,19.520242431640625,0.03306210786104202,0.030007870867848396,0.0007635590736754239
1729114519224575500,19.553575439453127,0.01832541823387146,-0.0017561858985573053,-0.07207997888326645
1729114519257908500,19.586908447265625,0.011453386396169662,-0.04993676394224167,-0.07711946964263916
1729114519291241500,19.620241455078126,0.015958385542035103,-0.06062658876180649,-0.012446013279259205
1729114519324574500,19.653574462890624,0.06513158977031708,-0.04428642615675926,-0.021226942539215088
1729114519357907500,19.686907470703126,0.043141089379787445,-0.02993151545524597,-0.006108472589403391
1729114519391240700,19.72024072265625,0.03771981969475746,0.006032116711139679,0.010231691412627697
1729114519424573700,19.75357373046875,0.05085303261876106,0.059023115783929825,0.0328330397605896
1729114519457906700,19.78690673828125,0.07337802648544312,0.011147962883114815,0.057801421731710434
1729114519491239700,19.82023974609375,0.030847785994410515,-0.05062396824359894,0.053983625024557114
1729114519524572700,19.85357275390625,0.0752105712890625,0.015271181240677834,0.09674293547868729
1729114519557905700,19.88690576171875,0.013591351918876171,-0.007253811229020357,-0.03184041380882263
1729114519591238700,19.92023876953125,0.057114217430353165,0.03558185324072838,0.03161134570837021
1729114519624571600,19.953571533203124,0.020845163613557816,-0.0012216945178806782,-0.0623827762901783
1729114519657904600,19.986904541015626,0.030389651656150818,-0.04581354558467865,-0.016798298805952072
1729114519691238000,20.02023779296875,0.027411770075559616,-0.04222481697797775,-0.05444176122546196
1729114519724571000,20.05357080078125,0.03634541109204292,0.04184303805232048,-0.02764083817601204
1729114519757904000,20.08690380859375,0.03749075159430504,0.015194825828075409,-0.08742751181125641
1729114519791236900,20.12023681640625,0.04474456235766411,0.005268557462841272,-0.06055023521184921
1729114519824569900,20.15356982421875,0.048638712614774704,0.00022906772210262716,0.01779092662036419
1729114519857902800,20.18690283203125,0.05024218559265137,-0.029473381116986275,0.020157959312200546
1729114519891235800,20.22023583984375,0.05825955793261528,0.006108472589403391,0.015194825828075409
1729114519924568800,20.25356884765625,0.060779303312301636,0.03680354729294777,0.02405211143195629
1729114519957901800,20.28690185546875,0.02542651630938053,0.05077667906880379,0.06062658876180649
1729114519991235000,20.320235107421876,0.039476003497838974,-0.023288551717996597,0.008933641016483307
1729114520024568000,20.353568115234374,0.04405735805630684,0.007941014133393764,0.0856713280081749
1729114520057901000,20.386901123046876,0.04818057641386986,0.01885990984737873,0.04879142343997955
1729114520091234000,20.420234130859374,0.03924693539738655,0.03298575058579445,0.04390464723110199
1729114520124567000,20.453567138671875,0.040697697550058365,0.03527642786502838,0.035352785140275955
1729114520157900000,20.486900146484373,0.059557609260082245,0.04107947647571564,-0.019928891211748123
1729114520191233000,20.52023291015625,0.0008399150101467967,0.023975754156708717,-0.03290939703583717
1729114520224566000,20.55356591796875,0.001374406274408102,0.03489464893937111,-0.022601349279284477
1729114520257899000,20.58689892578125,-0.04650074616074562,-0.002672456670552492,-0.004123218823224306
1729114520291232300,20.620232177734376,0.0364217683672905,-0.044820915907621384,0.0021379655227065086
1729114520324565200,20.653565185546874,0.0328330397605896,-0.05741964280605316,0.04337015375494957
1729114520357898200,20.686898193359376,0.05596888065338135,0.020845163613557816,0.036727190017700195
1729114520391231200,20.720231201171874,0.039323292672634125,0.0038177953101694584,-0.1757712960243225
1729114520424564200,20.753564208984375,-0.002672456670552492,0.04497363045811653,-0.04253023862838745
1729114520457897200,20.786897216796874,0.033291175961494446,0.0014507622690871358,-0.025502873584628105
1729114520491230200,20.820230224609375,0.04703523963689804,-0.001985253533348441,-0.021685076877474785
1729114520524563200,20.853563232421877,0.020463382825255394,-0.004199574701488018,-0.14125843346118927
1729114520557896200,20.886896240234375,0.019088976085186005,-0.1008661538362503,-0.030160583555698395
1729114520591229400,20.9202294921875,0.09697200357913971,-0.04489727318286896,0.0659715011715889
1729114520624562400,20.9535625,0.02924431301653385,0.041384901851415634,0.054518118500709534
1729114520657895400,20.9868955078125,0.046729814261198044,0.0426829531788826,0.032069481909275055
1729114520691228400,21.020228515625,0.04023956134915352,0.009391776286065578,0.02993151545524597
1729114520724561400,21.0535615234375,0.04130854457616806,-0.04879142343997955,0.03649812191724777
1729114520757894400,21.086894287109374,0.03695625811815262,-0.02160872146487236,0.027793550863862038
1729114520791227400,21.120227294921875,0.02107422985136509,0.01916533336043358,-0.007406522985547781
1729114520824560400,21.153560302734373,0.01916533336043358,0.004734066314995289,-0.022601349279284477
1729114520857893400,21.186893310546875,0.04214845970273018,-0.022524992004036903,-0.03405473381280899
1729114520891226600,21.2202265625,0.03092414326965809,-0.0051158457063138485,0.010231691412627697
1729114520924559600,21.2535595703125,0.027793550863862038,-0.02870982140302658,-0.0031305921729654074
1729114520957892600,21.286892578125,0.028480753302574158,-0.0009162708884105086,0.0364217683672905
1729114520991225600,21.3202255859375,0.027869906276464462,0.016721943393349648,-0.00862821750342846
1729114521024558600,21.35355859375,0.022066857665777206,0.010613471269607544,0.009009997360408306
1729114521057891600,21.3868916015625,0.014431266114115715,0.0028251686599105597,0.0009162708884105086
1729114521091224600,21.420224609375,0.0036650835536420345,0.0029778804164379835,0.011453386396169662
1729114521124557600,21.4535576171875,0.011071606539189816,-0.004963133949786425,0.0008399150101467967
1729114521157890600,21.486890625,0.017561858519911766,-0.00015271181473508477,0.0023670331574976444
1729114521191223800,21.520223876953125,-0.0038941511884331703,-0.00038177953683771193,0.004810422193259001
1729114521224556800,21.553556884765626,-0.0068720318377017975,-0.017180079594254494,0.007253811229020357
1729114521257889800,21.586889892578125,0.007177455350756645,-0.017180079594254494,0.011377030052244663
1729114521291222800,21.620222900390626,0.000687203137204051,-0.017027366906404495,0.012446013279259205
1729114521324555800,21.6535556640625,-0.0010689827613532543,-0.02680092304944992,0.015423892997205257
1729114521357888800,21.686888671875,0.0022906772792339325,-0.024815669283270836,0.013209572061896324
1729114521391221800,21.7202216796875,0.0035887276753783226,-0.005726693198084831,0.0028251686599105597
1729114521424554800,21.7535546875,0.000687203137204051,0.0010689827613532543,0.0006108472589403391
1729114521457888000,21.786887939453123,0.0023670331574976444,-0.0022906772792339325,0.0006108472589403391
1729114521491221000,21.820220947265625,0.002748812548816204,0.0017561858985573053,-0.00129805039614439
1729114521524554000,21.853553955078127,0.0004581354442052543,0.0019088976550847292,-0.0008399150101467967
1729114521557887000,21.886886962890625,-0.0038177953101694584,-0.0004581354442052543,-0.0004581354442052543
1729114521591220000,21.920219970703126,-0.0014507622690871358,0.0009162708884105086,-0.00030542362947016954
1729114521624553000,21.953552978515624,0.0032833039294928312,0.0004581354442052543,-0.000687203137204051
1729114521657886000,21.986885986328126,-0.002061609411612153,0.00038177953683771193,-0.00015271181473508477
1729114521691219000,22.020218994140624,-0.0011453386396169662,0.0009926267666742206,-0.000687203137204051
1729114521724552000,22.053552001953125,0.0010689827613532543,0.000687203137204051,-0.0004581354442052543
1729114521757885200,22.08688525390625,-0.00022906772210262716,0.0010689827613532543,-0.00015271181473508477
1729114521791218200,22.12021826171875,-0.00022906772210262716,0.0005344913806766272,-0.00015271181473508477
1729114521824551200,22.15355126953125,0.0008399150101467967,0.0004581354442052543,-0.000687203137204051
1729114521857884200,22.18688427734375,0.0004581354442052543,0.0010689827613532543,-0.00030542362947016954
1729114521891217200,22.220217041015626,0.00038177953683771193,0.0009926267666742206,-0.000687203137204051
1729114521924550100,22.253550048828124,-0.00015271181473508477,0.0004581354442052543,-0.000687203137204051
1729114521957883100,22.286883056640626,0.0010689827613532543,0.0004581354442052543,-0.00030542362947016954
1729114521991216000,22.320216064453124,0.00015271181473508477,0.00022906772210262716,-0.0004581354442052543
1729114522024549000,22.353549072265626,-0.0022143214009702206,0.0008399150101467967,-0.00030542362947016954
1729114522057882400,22.38688232421875,-0.01954711228609085,0.004046862944960594,-0.0019088976550847292
1729114522091215400,22.42021533203125,-0.04886778071522713,-0.0010689827613532543,-0.0006108472589403391
1729114522124548400,22.45354833984375,-0.10201149433851242,0.015500249341130257,-0.00259610079228878
1729114522157881300,22.48688134765625,-0.12010784447193146,0.0008399150101467967,-0.008399149402976036
1729114522191214300,22.52021435546875,-0.16080553829669952,-0.02489202655851841,0.01175880990922451
1729114522224547300,22.55354736328125,-0.29587915539741516,-0.011300674639642239,0.007788302376866341
1729114522257880300,22.58688037109375,-0.47539186477661133,0.012675080448389053,-0.00015271181473508477
1729114522291213300,22.62021337890625,-0.7224795818328857,0.019318044185638428,-0.0029778804164379835
1729114522324546300,22.65354638671875,-1.0104941129684448,0.011606098152697086,0.010231691412627697
1729114522357879600,22.686879638671876,-1.3125580549240112,-0.023975754156708717,0.027259059250354767
1729114522391212500,22.720212646484374,-1.6247010231018066,-0.01695101149380207,0.01901262067258358
1729114522424545500,22.753545654296875,-1.8362832069396973,0.008399149402976036,0.014813045971095562
1729114522457878500,22.78687841796875,-1.9233289957046509,0.011911521665751934,0.027946261689066887
1729114522491211500,22.82021142578125,-1.928139328956604,0.008322793990373611,0.039476003497838974
1729114522524544500,22.85354443359375,-1.874690294265747,-0.010231691412627697,0.039170581847429276
1729114522557877500,22.88687744140625,-1.7932184934616089,-0.010842538438737392,0.023899398744106293
1729114522591210500,22.92021044921875,-1.6814334392547607,0.0009162708884105086,0.021914144977927208
1729114522624543500,22.95354345703125,-1.5906462669372559,0.001374406274408102,0.02053973823785782
1729114522657876700,22.986876708984376,-1.485504150390625,0.0004581354442052543,0.014431266114115715
1729114522691209700,23.020209716796874,-1.397007703781128,-0.0009162708884105086,0.010078979656100273
1729114522724542700,23.053542724609375,-1.3313416242599487,-0.01382041908800602,0.012216945178806782
1729114522757875700,23.086875732421873,-1.272623896598816,0.0050394898280501366,0.006719320081174374
1729114522791208700,23.120208740234375,-1.261552333831787,-0.006337540224194527,0.012827792204916477
1729114522824541700,23.153541748046877,-1.2574291229248047,-0.01038440316915512,0.013896775431931019
1729114522857874700,23.186874755859375,-1.2396382093429565,-0.0017561858985573053,0.01382041908800602
1729114522891207700,23.220207763671876,-1.2984322309494019,-0.01626380905508995,0.019241688773036003
1729114522924540700,23.253540771484374,-1.3735663890838623,-0.013362283818423748,0.017867282032966614
1729114522957874000,23.2868740234375,-1.4538928270339966,-0.0029778804164379835,0.012827792204916477
1729114522991207000,23.32020703125,-1.5451381206512451,-0.009849912486970425,0.009468132629990578
1729114523024540000,23.353539794921875,-1.6099642515182495,-0.005955760832875967,0.01794363744556904
1729114523057873000,23.386872802734374,-1.6762412786483765,-0.009697199799120426,0.022372281178832054
1729114523091206000,23.420205810546875,-1.7070890665054321,0.0021379655227065086,0.01794363744556904
1729114523124539000,23.453538818359377,-1.7211384773254395,0.009620844386518002,0.013591351918876171
1729114523157871900,23.486871826171875,-1.7004460096359253,-0.0016798300202935934,0.013896775431931019
1729114523191204900,23.520204833984376,-1.684869408607483,-0.0035123717971146107,0.01252236869186163
1729114523224537900,23.553537841796874,-1.651960015296936,0.014507622458040714,0.00786465872079134
1729114523257871000,23.58687109375,-1.6163018941879272,-0.006261184345930815,0.014583977870643139
1729114523291204000,23.6202041015625,-1.556591510772705,0.00862821750342846,0.007788302376866341
1729114523324537000,23.653537109375,-1.5081819295883179,0.005650337319821119,0.012216945178806782
1729114523357870000,23.6868701171875,-1.478097677230835,0.007711946498602629,0.009391776286065578
1729114523391203000,23.720203125,-1.456565260887146,0.007559234742075205,0.011377030052244663
1729114523424536000,23.7535361328125,-1.4649643898010254,0.011453386396169662,0.006642963737249374
1729114523457869000,23.786869140625,-1.4561835527420044,0.0005344913806766272,0.015652960166335106
1729114523491202000,23.8202021484375,-1.4558781385421753,-0.007482878863811493,0.014889402315020561
1729114523524535000,23.85353515625,-1.4784793853759766,0.013133215717971325,0.008704573847353458
1729114523557868300,23.886868408203124,-1.4702329635620117,0.005803049076348543,0.027259059250354767
1729114523591201300,23.920201171875,-1.5016915798187256,0.0038177953101694584,0.012904148548841476
1729114523624534300,23.9535341796875,-1.4776395559310913,0.009849912486970425,0.010842538438737392
1729114523657867300,23.9868671875,-1.4814573526382446,0.0019088976550847292,0.015576604753732681
1729114523691200300,24.0202001953125,-1.4807701110839844,0.023364907130599022,0.004352286923676729
1729114523724533200,24.053533203125,-1.4650408029556274,0.0021379655227065086,0.012675080448389053
1729114523757866200,24.0868662109375,-1.4667205810546875,0.005879404954612255,0.010078979656100273
1729114523791199200,24.12019921875,-1.4610702991485596,0.023593975231051445,0.010078979656100273
1729114523824532500,24.153532470703126,-1.4717601537704468,-0.0019088976550847292,0.016111096367239952
1729114523857865500,24.186865478515625,-1.4791666269302368,0.003359660040587187,0.012980503961443901
1729114523891198500,24.220198486328126,-1.4926053285598755,0.008857285603880882,0.012598725035786629
1729114523924531500,24.253531494140624,-1.497262954711914,0.00038177953683771193,0.01748550310730934
1729114523957864400,24.286864501953126,-1.4667205810546875,0.013667707331478596,0.014507622458040714
1729114523991197400,24.320197509765624,-1.4543509483337402,-0.013438640162348747,0.025731941685080528
1729114524024530400,24.353530517578125,-1.426175594329834,0.011835165321826935,0.01626380905508995
1729114524057863400,24.386863525390623,-1.4311387538909912,-0.005803049076348543,0.01847812905907631
1729114524091196400,24.420196533203125,-1.4428975582122803,0.011987877078354359,0.013362283818423748
1729114524124529700,24.45352978515625,-1.4524420499801636,0.014736690558493137,0.017027366906404495
1729114524157862700,24.486862548828125,-1.4706147909164429,0.01046075951308012,0.01885990984737873
1729114524191195600,24.520195556640626,-1.4363309144973755,0.006032116711139679,0.016798298805952072
1729114524224528600,24.553528564453124,-1.4088428020477295,-0.004123218823224306,0.01847812905907631
1729114524257861600,24.586861572265626,-1.382652759552002,0.01175880990922451,0.010766183026134968
1729114524291194600,24.620194580078124,-1.3389008045196533,0.007788302376866341,0.014660334214568138
1729114524324527600,24.653527587890625,-1.2943090200424194,-0.009315420873463154,0.0231358390301466
1729114524357860600,24.686860595703124,-1.2333005666732788,0.007635590620338917,0.013744063675403595
1729114524391193600,24.720193603515625,-1.1816840171813965,0.009239064529538155,0.014049487188458443
1729114524424526800,24.75352685546875,-1.050351858139038,-0.016721943393349648,0.018707197159528732
1729114524457859800,24.78685986328125,-0.6891120672225952,0.0016798300202935934,0.005726693198084831
1729114524491192800,24.82019287109375,-0.329781174659729,-0.011682453565299511,0.0051158457063138485
1729114524524525800,24.85352587890625,0.0009926267666742206,0.011911521665751934,-0.00129805039614439
1729114524557858800,24.88685888671875,0.07314895838499069,0.004046862944960594,-0.00129805039614439
1729114524591191800,24.92019189453125,-0.006108472589403391,0.0035887276753783226,-0.00038177953683771193
1729114524624524800,24.95352490234375,-0.04222481697797775,-0.006184828467667103,0.0038177953101694584
1729114524657857800,24.98685791015625,0.014583977870643139,-0.004886778071522713,0.008933641016483307
1729114524691190800,25.020190673828125,0.010308047756552696,0.0015271181473508477,0.000687203137204051
1729114524724524000,25.05352392578125,-0.013667707331478596,-0.0005344913806766272,-0.00022906772210262716
1729114524757857000,25.08685693359375,0.002672456670552492,-0.0034360159188508987,0.0007635590736754239
1729114524791190000,25.12018994140625,0.00259610079228878,0.004657710436731577,-0.00007635590736754239
1729114524824523000,25.15352294921875,-0.0032069480512291193,-0.0025197449140250683,0.0007635590736754239
1729114524857856000,25.18685595703125,0.0012216945178806782,-0.0004581354442052543,-0.00007635590736754239
1729114524891189000,25.22018896484375,0.0010689827613532543,0.001985253533348441,-0.0005344913806766272
1729114524924522000,25.25352197265625,-0.0008399150101467967,-0.0030542362947016954,-0.00015271181473508477
1729114524957855000,25.28685498046875,0.0006108472589403391,0.000687203137204051,-0.00015271181473508477
1729114524991188000,25.32018798828125,0.00022906772210262716,0.00030542362947016954,-0.00007635590736754239
1729114525024521200,25.353521240234375,-0.0018325417768210173,-0.0011453386396169662,-0.00007635590736754239
1729114525057854200,25.386854248046873,0.0010689827613532543,0.0010689827613532543,0
1729114525091187200,25.420187255859375,-0.0005344913806766272,-0.0005344913806766272,0
1729114525124520200,25.453520263671876,-0.0006108472589403391,0,-0.00007635590736754239
1729114525157853200,25.486853271484375,0.000687203137204051,0,-0.00007635590736754239
1729114525191186200,25.520186279296876,-0.00015271181473508477,-0.00007635590736754239,-0.00007635590736754239
1729114525224519200,25.553519287109374,0.00038177953683771193,0.0004581354442052543,0.0004581354442052543
1729114525257852200,25.58685205078125,0.0030542362947016954,-0.0035123717971146107,0.004657710436731577
1729114525291185200,25.62018505859375,0.002672456670552492,-0.007559234742075205,0.0064902519807219505
1729114525324518400,25.653518310546875,0.008857285603880882,-0.007406522985547781,0.00786465872079134
1729114525357851400,25.686851318359373,0.0010689827613532543,-0.0015271181473508477,0.007330167107284069
1729114525391184400,25.720184326171875,-0.03176405653357506,-0.008246437646448612,0.008399149402976036
1729114525424517400,25.753517333984377,-0.024815669283270836,0.0032833039294928312,0.0029778804164379835
1729114525457850400,25.786850341796875,-0.019394399598240852,0.01122431829571724,-0.00129805039614439
1729114525491183400,25.820183349609376,0.01572931744158268,0.016034740954637527,0.013744063675403595
1729114525524516400,25.853516357421874,0.017561858519911766,-0.011606098152697086,0.0008399150101467967
1729114525557849300,25.886849365234376,0.04909684881567955,-0.011835165321826935,-0.006261184345930815
1729114525591182300,25.920182373046874,0.08758022636175156,-0.015500249341130257,-0.002748812548816204
1729114525624515600,25.953515625,0.1414874941110611,-0.022906772792339325,0.013362283818423748
1729114525657848600,25.9868486328125,0.15019206702709198,-0.027793550863862038,0.02145601063966751
1729114525691181600,26.020181640625,0.168899267911911,-0.026495499536395073,-0.022754060104489326
1729114525724514600,26.0535146484375,0.2059318870306015,0.047264307737350464,0.03268032893538475
1729114525757847600,26.08684765625,0.23685602843761444,0.046577103435993195,-0.029167955741286278
1729114525791180500,26.1201806640625,0.23884128034114838,-0.006337540224194527,0.05238015204668045
1729114525824513500,26.153513427734374,0.24640052020549774,-0.033443886786699295,-0.0007635590736754239
1729114525857846500,26.186846435546876,0.27595025300979614,-0.003970507066696882,0.04611896723508835
1729114525891179500,26.220179443359374,0.3570402264595032,0.021150587126612663,0.08956547826528549
1729114525924512800,26.2535126953125,0.31260108947753906,0.022219568490982056,-0.001985253533348441
1729114525957845800,26.286845703125,0.2620534598827362,0.008322793990373611,0.044820915907621384
1729114525991178800,26.3201787109375,0.2190650999546051,-0.01901262067258358,0.04734066128730774
1729114526024511700,26.35351171875,0.16798299551010132,-0.08704573661088943,-0.13705885410308838
1729114526057844700,26.3868447265625,0.21501824259757996,-0.07322531193494797,-0.0689493864774704
1729114526091177700,26.420177734375,0.1993652731180191,-0.0021379655227065086,-0.03420744836330414
1729114526124510700,26.4535107421875,0.13270656764507294,0.0261137206107378,-0.028557108715176582
1729114526157843700,26.48684375,0.11293038725852966,-0.015423892997205257,-0.02176143415272236
1729114526191176700,26.5201767578125,0.08696937561035156,0.10979979485273361,0.04459185153245926
1729114526224510000,26.553510009765624,0.05741964280605316,-0.007330167107284069,0.018783552572131157
1729114526257843000,26.586843017578126,0.07757759839296341,-0.03962871432304382,0.009620844386518002
1729114526291176000,26.620176025390624,0.06910209357738495,0.030847785994410515,0.02473931387066841
1729114526324509000,26.653509033203125,0.03871244564652443,-0.019241688773036003,-0.062306419014930725
1729114526357842000,26.686842041015623,0.03504735976457596,0.028251685202121735,0.010918894782662392
1729114526391175000,26.7201748046875,0.02298312820494175,-0.038101598620414734,-0.0007635590736754239
1729114526424508000,26.7535078125,0.030542362481355667,-0.013973130844533443,0.05803048983216286
1729114526457841000,26.7868408203125,0.012675080448389053,-0.07001836597919464,0.043141089379787445
1729114526491174100,26.820174072265626,0.034283801913261414,-0.02748812735080719,0.12736165523529053
1729114526524507100,26.853507080078124,0.04421006888151169,0.08154810965061188,0.007177455350756645
1729114526557840100,26.886840087890626,-0.04016320779919624,0.0791047215461731,0.0587940476834774
1729114526591173000,26.920173095703124,-0.03290939703583717,0.007253811229020357,-0.007482878863811493
1729114526624506000,26.953506103515625,-0.009697199799120426,0.009315420873463154,0.012598725035786629
1729114526657839000,26.986839111328123,-0.10300412029027939,0.047646086663007736,0.026342788711190224
1729114526691172000,27.020172119140625,-0.12071868777275085,-0.012293301522731781,-0.01175880990922451
1729114526724505000,27.053505126953127,-0.10132429003715515,0.012446013279259205,-0.04421006888151169
1729114526757838000,27.086838134765625,-0.125987246632576,0.01511846948415041,-0.006719320081174374
1729114526791171300,27.12017138671875,-0.13293562829494476,-0.0164165198802948,-0.07994463294744492
1729114526824504300,27.15350439453125,-0.1333937644958496,0.030389651656150818,-0.056427016854286194
1729114526857837300,27.18683740234375,-0.14072394371032715,0.06826218217611313,-0.06788039952516556
1729114526891170300,27.22017041015625,-0.1740151196718216,-0.024281177669763565,-0.04604261368513107
1729114526924503300,27.25350341796875,-0.17447324097156525,-0.014049487188458443,0.0034360159188508987
1729114526957836300,27.286836181640624,-0.168899267911911,0.0032069480512291193,-0.030007870867848396
1729114526991169300,27.320169189453125,-0.1620272397994995,0.01901262067258358,0.055739812552928925
1729114527024502300,27.353502197265627,-0.13232478499412537,-0.023212196305394173,0.03374931216239929
1729114527057835300,27.386835205078125,-0.08078455179929733,0.04527905210852623,0.07834116369485855
1729114527091168500,27.42016845703125,-0.0892600566148758,-0.021990500390529633,0.06879667192697525
1729114527124501500,27.45350146484375,-0.051082100719213486,-0.11644276231527328,0.11980241537094116
1729114527157834500,27.48683447265625,-0.04550812020897865,0.06841489672660828,-0.034283801913261414
1729114527191167500,27.52016748046875,-0.07780666649341583,0.06306997686624527,-0.005344913341104984
1729114527224500500,27.55350048828125,-0.10254598408937454,0.011453386396169662,-0.06986565887928009
1729114527257833500,27.58683349609375,-0.14064757525920868,-0.028557108715176582,-0.1659213900566101
1729114527291166500,27.62016650390625,-0.2112767994403839,0.07330167293548584,0.04169032722711563
1729114527324499500,27.65349951171875,-0.21646900475025177,-0.08223531395196915,-0.12232216447591782
1729114527357832400,27.68683251953125,-0.19821994006633759,-0.0032833039294928312,-0.011453386396169662
1729114527391165700,27.720165771484375,-0.1757712960243225,-0.012675080448389053,-0.03512371703982353
1729114527424498700,27.753498779296876,-0.14790138602256775,-0.08391514420509338,0.01252236869186163
1729114527457831700,27.786831787109374,-0.1396549493074417,-0.08849649876356125,0.030313294380903244
1729114527491164700,27.82016455078125,-0.12293300777673721,0.005650337319821119,0.014583977870643139
1729114527524497700,27.85349755859375,-0.12102411687374115,0.014583977870643139,-0.009697199799120426
1729114527557830700,27.88683056640625,-0.11201411485671997,-0.04741701856255531,-0.012598725035786629
1729114527591163600,27.92016357421875,-0.09155073016881943,0.017027366906404495,0.0393996499478817
1729114527624496600,27.95349658203125,-0.11590826511383057,-0.06329904496669769,0.009391776286065578
1729114527657829600,27.98682958984375,-0.08605311065912247,-0.06055023521184921,0.0165692325681448
1729114527691163000,28.020162841796875,-0.040010496973991394,0.08315158635377884,0.021303297951817513
1729114527724496000,28.053495849609376,-0.07734853774309158,0.03474193811416626,-0.08315158635377884
1729114527757828900,28.086828857421875,-0.0692548081278801,0.02038702741265297,-0.00015271181473508477
1729114527791161900,28.120161865234376,-0.08612946420907974,0.027029991149902344,-0.1217876747250557
1729114527824494800,28.153494873046874,-0.07475243508815765,0.02802261710166931,-0.04321744292974472
1729114527857827800,28.186827880859376,-0.059023115783929825,-0.004581354558467865,-0.010689826682209969
1729114527891160800,28.220160888671874,-0.05085303261876106,0.07979192584753036,0.007330167107284069
1729114527924493800,28.253493896484375,-0.07040014863014221,0.016187451779842377,0.06948387622833252
1729114527957826800,28.286826904296873,-0.06253548711538315,-0.052990999072790146,0.017409147694706917
1729114527991160000,28.32016015625,-0.009773556143045425,0.03955236077308655,0.12041326612234116
1729114528024493000,28.3534931640625,-0.06933116167783737,0.020005248486995697,0.021837789565324783
1729114528057826000,28.386825927734375,-0.08399149775505066,-0.018783552572131157,0.012598725035786629
1729114528091159000,28.420158935546876,-0.05024218559265137,-0.0004581354442052543,0.0021379655227065086
1729114528124492000,28.453491943359374,-0.08704573661088943,-0.0364217683672905,0.023441264405846596
1729114528157825000,28.486824951171876,-0.055052608251571655,-0.0426829531788826,0.0018325417768210173
1729114528191158000,28.520157958984374,-0.03871244564652443,-0.0426829531788826,-0.019394399598240852
1729114528224491000,28.553490966796875,-0.04650074616074562,0.011529741808772087,-0.016034740954637527
1729114528257824000,28.586823974609374,-0.08200624585151672,-0.039323292672634125,-0.06039752438664436
1729114528291157200,28.6201572265625,-0.05803048983216286,-0.02214321307837963,-0.03374931216239929
1729114528324490200,28.653490234375,-0.04558447748422623,0.043828289955854416,0.0034360159188508987
1729114528357823200,28.6868232421875,-0.07024743407964706,-0.05421269312500954,-0.12346750497817993
1729114528391156200,28.72015625,-0.06604786217212677,-0.02351761981844902,-0.0784938707947731
1729114528424489200,28.7534892578125,-0.06635328382253647,0.0006108472589403391,-0.11438114941120148
1729114528457822200,28.786822265625,-0.05329642444849014,-0.04253023862838745,-0.0781884491443634
1729114528491155200,28.8201552734375,-0.05932854115962982,-0.04871506989002228,-0.04092676565051079
1729114528524488200,28.85348828125,-0.023288551717996597,0.09040539711713791,-0.004123218823224306
1729114528557821200,28.8868212890625,-0.011300674639642239,0.05115845799446106,0.06826218217611313
1729114528591154400,28.920154541015624,-0.024968381971120834,-0.007024743594229221,-0.02748812735080719
1729114528624487400,28.9534873046875,-0.010995250195264816,0.017867282032966614,0.20348849892616272
1729114528657820400,28.9868203125,-0.01382041908800602,0.012904148548841476,-0.014583977870643139
1729114528691153400,29.0201533203125,-0.02710634656250477,0.05482354015111923,-0.016492875292897224
1729114528724486400,29.053486328125,-0.008322793990373611,0.08101361989974976,0.05322006717324257
1729114528757819400,29.0868193359375,-0.01794363744556904,0.1214822456240654,0.018554486334323883
1729114528791152400,29.12015234375,-0.03840702027082443,0.06887302547693253,-0.008093725889921188
1729114528824485400,29.1534853515625,-0.053983625024557114,0.06131379306316376,0.012980503961443901
1729114528857818600,29.186818603515626,-0.01885990984737873,-0.0009162708884105086,0.04619532451033592
1729114528891151600,29.220151611328124,-0.01794363744556904,-0.03092414326965809,0.026571854948997498
1729114528924484600,29.253484619140625,-0.0032833039294928312,-0.00916270911693573,-0.024128466844558716
1729114528957817600,29.286817626953123,0.0016798300202935934,-0.04810422286391258,0.0456608310341835
1729114528991150600,29.320150634765625,0.017867282032966614,-0.043141089379787445,0.06490252166986465
1729114529024483600,29.353483642578126,-0.0035887276753783226,0.008322793990373611,0.040544986724853516
1729114529057816600,29.386816650390625,-0.0015271181473508477,0.027182703837752342,0.09452861547470093
1729114529091149600,29.420149658203126,0.004199574701488018,0.00015271181473508477,-0.018096350133419037
1729114529124482600,29.453482666015624,0.0068720318377017975,-0.008246437646448612,-0.012140588834881783
1729114529157815800,29.48681591796875,0.017714571207761765,-0.028480753302574158,-0.010155336000025272
1729114529191148800,29.520148681640624,0.014583977870643139,-0.009391776286065578,0.045889899134635925
1729114529224481800,29.553481689453125,0.010155336000025272,-0.020157959312200546,-0.027411770075559616
1729114529257814800,29.586814697265623,0.008246437646448612,0.012980503961443901,-0.024968381971120834
1729114529291147800,29.620147705078125,0.004123218823224306,0.029167955741286278,-0.06016845628619194
1729114529324480800,29.653480712890627,0.011529741808772087,0.04756972938776016,-0.030542362481355667
1729114529357813800,29.686813720703125,0.000687203137204051,0.014507622458040714,-0.0423775278031826
1729114529391146800,29.720146728515626,0.005726693198084831,-0.0016034740256145597,-0.024586603045463562
1729114529424479700,29.753479736328124,0.0025197449140250683,0.008551862090826035,-0.014049487188458443
1729114529457813000,29.78681298828125,0.004352286923676729,0.012675080448389053,-0.010155336000025272
1729114529491146000,29.82014599609375,0.0009926267666742206,-0.00992626789957285,0.00259610079228878
1729114529524479000,29.85347900390625,0.0036650835536420345,-0.019088976085186005,0.0012216945178806782
1729114529557812000,29.88681201171875,-0.0018325417768210173,-0.0051158457063138485,0.007788302376866341
1729114529591145000,29.92014501953125,-0.0029015245381742716,-0.01038440316915512,0.0065666078589856625
1729114529624478000,29.95347802734375,0.0009162708884105086,-0.017867282032966614,0.016187451779842377
1729114529657811000,29.98681103515625,0.0016798300202935934,-0.022066857665777206,0.0164165198802948
1729114529691144000,30.02014404296875,0.0021379655227065086,-0.023823043331503868,0.01725643500685692
1729114529724477000,30.053476806640624,0.0029015245381742716,-0.024586603045463562,0.014583977870643139
1729114529757810200,30.08681005859375,0.000687203137204051,-0.022372281178832054,0.013514995574951172
1729114529791143200,30.12014306640625,-0.00015271181473508477,-0.0130568603053689,0.006261184345930815
1729114529824476200,30.15347607421875,0.0010689827613532543,-0.0023670331574976444,0.002061609411612153
1729114529857809200,30.18680908203125,0.00022906772210262716,0,0.00022906772210262716
1729114529891142100,30.22014208984375,-0.001374406274408102,-0.00007635590736754239,-0.0007635590736754239
1729114529924475100,30.25347509765625,-0.0007635590736754239,0.00129805039614439,-0.0015271181473508477
1729114529957808000,30.28680810546875,0.00015271181473508477,0.0008399150101467967,-0.0019088976550847292
1729114529991141000,30.32014111328125,-0.001374406274408102,0.0009926267666742206,-0.0017561858985573053
1729114530024474000,30.35347412109375,-0.0008399150101467967,0.0004581354442052543,-0.00129805039614439
1729114530057807400,30.386807373046874,-0.00038177953683771193,0.00030542362947016954,-0.00129805039614439
1729114530091140400,30.420140380859376,-0.0004581354442052543,0.0004581354442052543,-0.000687203137204051
1729114530124473300,30.453473388671874,-0.00030542362947016954,0.0009926267666742206,-0.0005344913806766272
1729114530157806300,30.486806396484376,-0.00015271181473508477,-0.00007635590736754239,-0.00007635590736754239
1729114530191139300,30.520139404296874,0.00015271181473508477,-0.0012216945178806782,-0.00007635590736754239
1729114530224472300,30.553472412109375,0.00015271181473508477,-0.0007635590736754239,0.0008399150101467967
1729114530257805300,30.586805419921873,0.0004581354442052543,-0.0009162708884105086,0.0016034740256145597
1729114530291138300,30.62013818359375,0.0004581354442052543,-0.00129805039614439,0.0005344913806766272
1729114530324471300,30.65347119140625,0.00030542362947016954,-0.0007635590736754239,0.0005344913806766272
1729114530357804500,30.686804443359375,0.00015271181473508477,0.00022906772210262716,-0.000687203137204051
1729114530391137500,30.720137451171876,-0.0007635590736754239,-0.00015271181473508477,-0.00007635590736754239
1729114530424470500,30.753470458984374,-0.0007635590736754239,-0.00015271181473508477,-0.00007635590736754239
1729114530457803500,30.786803466796876,0.00030542362947016954,-0.00015271181473508477,-0.000687203137204051
1729114530491136500,30.820136474609374,-0.011606098152697086,0.0014507622690871358,-0.000687203137204051
1729114530524469500,30.853469482421875,-0.03558185324072838,0.0032833039294928312,-0.0015271181473508477
1729114530557802500,30.886802490234373,-0.07963921129703522,0.013591351918876171,-0.008246437646448612
1729114530591135500,30.920135498046875,-0.11422843486070633,-0.007101099472492933,-0.008933641016483307
1729114530624468500,30.953468505859377,-0.20379391312599182,-0.018783552572131157,0.007635590620338917
1729114530657801700,30.9868017578125,-0.3760528564453125,-0.010995250195264816,0.00862821750342846
1729114530691134700,31.020134765625,-0.611992597579956,0.005421269219368696,0.004428642801940441
1729114530724467700,31.0534677734375,-0.9012287855148315,0.0032833039294928312,0.005726693198084831
1729114530757800700,31.08680078125,-1.1958098411560059,-0.01122431829571724,0.017027366906404495
1729114530791133700,31.1201337890625,-1.4538928270339966,0.014660334214568138,0.010231691412627697
1729114530824466700,31.153466796875,-1.6665440797805786,-0.004046862944960594,0.020310672000050545
1729114530857799700,31.186799560546874,-1.8023048639297485,0.017027366906404495,0.012751436792314053
1729114530891132700,31.220132568359375,-1.883471131324768,0.017867282032966614,0.017180079594254494
1729114530924465700,31.253465576171877,-1.8905723094940186,0.04161396995186806,0.013896775431931019
1729114530957799000,31.286798828125,-1.8740030527114868,0.013362283818423748,0.02764083817601204
1729114530991132000,31.3201318359375,-1.8360542058944702,0.016874656081199646,0.02641914412379265
1729114531024465000,31.35346484375,-1.7704644203186035,0.013362283818423748,0.022219568490982056
1729114531057798000,31.3867978515625,-1.705561876296997,0.019241688773036003,0.017714571207761765
1729114531091131000,31.420130859375,-1.6404303312301636,0.014049487188458443,0.018630841746926308
1729114531124463900,31.4534638671875,-1.6045430898666382,0.004123218823224306,0.019241688773036003
1729114531157796900,31.486796875,-1.712433934211731,0.008704573847353458,0.017867282032966614
1729114531191129900,31.5201298828125,-1.875988245010376,-0.0016034740256145597,0.030466007068753242
1729114531224463000,31.553463134765625,-2.0250349044799805,-0.008246437646448612,0.027946261689066887
1729114531257796000,31.586796142578127,-2.067183494567871,-0.0036650835536420345,0.029778804630041122
1729114531291129000,31.620129150390625,-2.021904468536377,0.005268557462841272,0.027793550863862038
1729114531324462000,31.653462158203126,-1.9500535726547241,-0.008933641016483307,0.031076854094862938
1729114531357795000,31.686795166015624,-1.8610988855361938,-0.011147962883114815,0.024662958458065987
1729114531391128000,31.720128173828126,-1.785201072692871,-0.007941014133393764,0.02244863659143448
1729114531424461000,31.7534609375,-1.6882290840148926,0.001985253533348441,0.01794363744556904
1729114531457794000,31.7867939453125,-1.6379868984222412,-0.0022906772792339325,0.0130568603053689
1729114531491127000,31.820126953125,-1.598052740097046,-0.001985253533348441,0.016111096367239952
1729114531524460300,31.853460205078125,-1.5925551652908325,0.005421269219368696,0.02092151902616024
1729114531557793300,31.886793212890623,-1.5701065063476562,-0.00030542362947016954,0.01626380905508995
1729114531591126300,31.920126220703125,-1.5804145336151123,-0.00519220158457756,0.022677704691886902
1729114531624459300,31.953459228515626,-1.6146984100341797,0.0017561858985573053,0.016721943393349648
1729114531657792300,31.986792236328125,-1.6493639945983887,-0.007330167107284069,0.02176143415272236
1729114531691125200,32.02012524414062,-1.6847167015075684,-0.0024433890357613564,0.02664821222424507
1729114531724458200,32.053458251953124,-1.7051801681518555,0.0009162708884105086,0.021990500390529633
1729114531757791200,32.086791259765626,-1.7403801679611206,0.0051158457063138485,0.02229592576622963
1729114531791124200,32.12012426757813,-1.7535134553909302,0.002672456670552492,0.020157959312200546
1729114531824457500,32.15345751953125,-1.7790926694869995,-0.008475505746901035,0.020997874438762665
1729114531857790500,32.18679052734375,-1.764661431312561,0.002748812548816204,0.016874656081199646
1729114531891123500,32.22012353515625,-1.773213267326355,-0.015576604753732681,0.025502873584628105
1729114531924456400,32.25345654296875,-1.7651195526123047,-0.0006108472589403391,0.018554486334323883
1729114531957789400,32.28678955078125,-1.7839031219482422,-0.0014507622690871358,0.009315420873463154
1729114531991122400,32.32012231445312,-1.7684792280197144,-0.012140588834881783,0.013896775431931019
1729114532024455400,32.353455322265624,-1.7675628662109375,-0.0012216945178806782,0.012904148548841476
1729114532057788400,32.386788330078126,-1.7425181865692139,-0.0032833039294928312,0.008246437646448612
1729114532091121400,32.42012133789063,-1.7463359832763672,0.004046862944960594,0.009468132629990578
1729114532124454700,32.45345458984375,-1.7235819101333618,0.0364217683672905,0.00015271181473508477
1729114532157787600,32.48678759765625,-1.711364984512329,0.0021379655227065086,0.020463382825255394
1729114532191120600,32.52012060546875,-1.7144192457199097,0.02802261710166931,0.0023670331574976444
1729114532224453600,32.55345361328125,-1.7468703985214233,0.0011453386396169662,0.009849912486970425
1729114532257786600,32.58678662109375,-1.7525207996368408,0.02870982140302658,0.00916270911693573
1729114532291119600,32.62011962890625,-1.7593164443969727,-0.009849912486970425,0.012751436792314053
1729114532324452600,32.65345263671875,-1.738547682762146,0.0035887276753783226,0.012064233422279358
1729114532357785600,32.68678564453125,-1.7283923625946045,0.021150587126612663,0.01038440316915512
1729114532391118600,32.72011865234375,-1.68341863155365,0.011682453565299511,0.020005248486995697
1729114532424451800,32.753451904296874,-1.5908753871917725,0.012980503961443901,0.0164165198802948
1729114532457784800,32.786784912109376,-1.2722420692443848,0.002672456670552492,0.011682453565299511
1729114532491117800,32.82011791992188,-0.7591304183006287,-0.0007635590736754239,0.004810422193259001
1729114532524450800,32.85345092773437,-0.2518981397151947,0.0035123717971146107,0.0031305921729654074
1729114532557783800,32.88678369140625,0.09071081876754761,0.009544488042593002,0.004810422193259001
1729114532591116800,32.92011669921875,0.06421531736850739,0.013362283818423748,-0.015805672854185104
1729114532624449800,32.95344970703125,-0.04871506989002228,0.00786465872079134,0.005497625097632408
1729114532657783000,32.98678295898438,-0.012369656935334206,-0.006642963737249374,-0.0008399150101467967
1729114532691116300,33.0201162109375,0.020997874438762665,0.005650337319821119,-0.0007635590736754239
1729114532724449300,33.05344921875,-0.006108472589403391,-0.002061609411612153,-0.0012216945178806782
1729114532757782300,33.0867822265625,-0.0030542362947016954,0.000687203137204051,-0.0016798300202935934
1729114532791115300,33.120115234375,0.0064902519807219505,0.0015271181473508477,0.0008399150101467967
1729114532824448300,33.1534482421875,-0.0038941511884331703,-0.0018325417768210173,-0.0007635590736754239
1729114532857781200,33.18678125,0.002061609411612153,0.0016798300202935934,0.0005344913806766272
1729114532891114200,33.2201142578125,0.00030542362947016954,-0.00129805039614439,-0.0006108472589403391
1729114532924447200,33.253447265625,-0.00038177953683771193,0.00030542362947016954,0.0010689827613532543
1729114532957780200,33.2867802734375,0.0004581354442052543,-0.0006108472589403391,-0.000687203137204051
1729114532991113500,33.320113525390624,0.00007635590736754239,-0.000687203137204051,0.00015271181473508477
1729114533024446500,33.353446533203126,-0.00015271181473508477,-0.00015271181473508477,-0.00015271181473508477
1729114533057779500,33.38677954101563,0.00038177953683771193,-0.000687203137204051,-0.00015271181473508477
1729114533091112400,33.42011254882812,0.00030542362947016954,0.00030542362947016954,-0.00007635590736754239
1729114533124445400,33.453445556640624,0.00030542362947016954,-0.0007635590736754239,-0.00007635590736754239
1729114533157778400,33.4867783203125,0.00038177953683771193,0.00038177953683771193,-0.00015271181473508477
1729114533191111400,33.520111328125,-0.00015271181473508477,-0.000687203137204051,-0.00015271181473508477
1729114533224444400,33.5534443359375,-0.00015271181473508477,-0.00015271181473508477,0.00030542362947016954
1729114533257777700,33.58677758789062,0.00007635590736754239,-0.00038177953683771193,-0.00007635590736754239
1729114533291110700,33.620110595703125,0.0005344913806766272,-0.0008399150101467967,0.0005344913806766272
1729114533324443600,33.653443603515626,0.0016034740256145597,-0.001374406274408102,0.0016798300202935934
1729114533357776600,33.68677661132813,0.00022906772210262716,-0.0032069480512291193,0.004123218823224306
1729114533391109600,33.72010961914062,-0.0009162708884105086,-0.003970507066696882,0.0036650835536420345
1729114533424442600,33.753442626953124,0.0019088976550847292,-0.0019088976550847292,-0.0016034740256145597
1729114533457775600,33.786775634765625,-0.008322793990373611,0.004123218823224306,0.00038177953683771193
1729114533491108600,33.82010864257813,-0.022677704691886902,0.0038177953101694584,0
1729114533524441600,33.85344165039062,-0.02176143415272236,0.0005344913806766272,-0.00908635277301073
1729114533557774800,33.88677490234375,-0.0328330397605896,-0.012675080448389053,-0.015652960166335106
1729114533591107800,33.92010791015625,-0.04413371533155441,0.0029015245381742716,-0.025121092796325684
1729114533624440800,33.95344091796875,-0.04871506989002228,0.022219568490982056,-0.029473381116986275
1729114533657773800,33.98677392578125,-0.05047125369310379,-0.0004581354442052543,-0.011835165321826935
1729114533691106800,34.02010693359375,-0.07795938104391098,0.0034360159188508987,-0.009544488042593002
1729114533724439800,34.053439697265624,-0.08162446320056915,0.0009926267666742206,-0.01382041908800602
1729114533757772800,34.086772705078126,-0.06329904496669769,-0.011987877078354359,-0.010231691412627697
1729114533791105800,34.12010571289063,-0.07482878863811493,-0.008857285603880882,-0.010002624243497849
1729114533824438800,34.15343872070312,-0.07719582319259644,0.00908635277301073,-0.002061609411612153
1729114533857772000,34.18677197265625,-0.06849125027656555,0.02641914412379265,0.047111593186855316
1729114533891105000,34.22010498046875,-0.08460234850645065,-0.008322793990373611,0.01779092662036419
1729114533924438000,34.25343798828125,-0.08108997344970703,-0.0025197449140250683,0.04703523963689804
1729114533957771000,34.28677099609375,-0.08452598750591278,-0.01969982497394085,0.041232191026210785
1729114533991104000,34.32010400390625,-0.08826743066310883,-0.03336753323674202,0.0850604772567749
1729114534024437000,34.35343701171875,-0.09300149232149124,-0.07742489129304886,0.018707197159528732
1729114534057770000,34.38677001953125,-0.06100837141275406,0.02435753494501114,0.03695625811815262
1729114534091103000,34.42010302734375,-0.06841489672660828,-0.06062658876180649,0.0361163429915905
1729114534124436000,34.45343603515625,-0.034283801913261414,-0.05070032179355621,0.051922015845775604
1729114534157769200,34.486769287109375,-0.08131904155015945,0.01794363744556904,0.054899897426366806
1729114534191102200,34.52010229492188,-0.02924431301653385,0.015271181240677834,-0.001374406274408102
1729114534224435200,34.55343530273438,-0.01175880990922451,-0.006032116711139679,0.05825955793261528
1729114534257768200,34.58676831054687,-0.0692548081278801,0.02214321307837963,0.005650337319821119
1729114534291101200,34.62010107421875,-0.07215633243322372,0.04100312292575836,0.036039989441633224
1729114534324434200,34.65343408203125,-0.0650552362203598,0.06780404597520828,0.03008422814309597
1729114534357767200,34.68676708984375,-0.07276718318462372,0.05215108394622803,0.02664821222424507
1729114534391100200,34.72010009765625,-0.04046862944960594,0.07887565344572067,0.028938889503479004
1729114534424433200,34.75343310546875,-0.044668205082416534,0.06223006546497345,0.02473931387066841
1729114534457766400,34.786766357421875,-0.04550812020897865,0.04321744292974472,0.0456608310341835
1729114534491099400,34.82009936523438,-0.03229855000972748,0.007788302376866341,-0.09025268256664276
1729114534524432400,34.85343237304688,-0.04581354558467865,0.022066857665777206,-0.08215895295143127
1729114534557765400,34.88676538085937,-0.03352024406194687,-0.0859767496585846,-0.16844113171100616
1729114534591098400,34.920098388671875,-0.06620056927204132,0.000687203137204051,-0.08315158635377884
1729114534624431400,34.953431396484376,-0.03390202298760414,0.046729814261198044,-0.10697462409734726
1729114534657764400,34.98676440429688,-0.03130592033267021,0.03268032893538475,-0.018630841746926308
1729114534691097300,35.02009741210937,-0.061771929264068604,0.028786176815629005,-0.008017370477318764
1729114534724430300,35.053430419921874,-0.04306473210453987,-0.017714571207761765,-0.019776180386543274
1729114534757763600,35.086763671875,-0.01901262067258358,-0.06200099736452103,-0.016874656081199646
1729114534791096600,35.1200966796875,-0.00908635277301073,-0.027411770075559616,0.0065666078589856625
1729114534824429600,35.1534296875,-0.009391776286065578,-0.0029015245381742716,-0.049173206090927124
1729114534857762600,35.18676245117187,-0.004275931045413017,0.047798797488212585,0.0420721061527729
1729114534891095600,35.220095458984375,-0.0130568603053689,-0.05008947476744652,-0.007711946498602629
1729114534924428500,35.253428466796876,0.005650337319821119,0.0029015245381742716,0.08849649876356125
1729114534957761500,35.28676147460938,0.009009997360408306,0.008475505746901035,0.007559234742075205
1729114534991094500,35.32009448242187,0.0014507622690871358,-0.01588202826678753,0.05100574716925621
1729114535024427500,35.353427490234374,0.011147962883114815,0.007941014133393764,0.043293800204992294
1729114535057760800,35.3867607421875,-0.005573981441557407,0.005268557462841272,0.058717694133520126
1729114535091093800,35.42009375,-0.014965757727622986,-0.0037414394319057465,0.07368344813585281
1729114535124426800,35.4534267578125,-0.005726693198084831,0.007024743594229221,0.041919391602277756
1729114535157759700,35.486759765625,0.0019088976550847292,0.012598725035786629,-0.02764083817601204
1729114535191092700,35.5200927734375,0.001374406274408102,0,-0.03680354729294777
1729114535224425700,35.55342578125,-0.021914144977927208,-0.027793550863862038,-0.048486001789569855
1729114535257758700,35.5867587890625,0.015347537584602833,0.032222192734479904,0.02283041551709175
1729114535291091700,35.620091796875,0.02244863659143448,-0.005421269219368696,-0.0847550556063652
1729114535324424700,35.6534248046875,-0.010002624243497849,0.04932591691613197,0.016111096367239952
1729114535357758000,35.68675805664063,-0.016034740954637527,0.050547610968351364,-0.024433890357613564
1729114535391091000,35.72009106445312,-0.025731941685080528,0.015271181240677834,-0.005421269219368696
1729114535424424000,35.753423828125,-0.014813045971095562,-0.02802261710166931,0.05085303261876106
1729114535457757000,35.7867568359375,-0.0029778804164379835,-0.04107947647571564,-0.012980503961443901
1729114535491090000,35.82008984375,0.0006108472589403391,0.015652960166335106,0.0025197449140250683
1729114535524423000,35.8534228515625,-0.013896775431931019,-0.004657710436731577,0.013362283818423748
1729114535557756000,35.886755859375,0.0012216945178806782,0.013133215717971325,0.04749337583780289
1729114535591089000,35.9200888671875,-0.008017370477318764,-0.022219568490982056,0.034283801913261414
1729114535624422100,35.953422119140626,-0.00862821750342846,-0.05024218559265137,0.0009926267666742206
1729114535657755100,35.98675512695313,0.013896775431931019,-0.03290939703583717,-0.013514995574951172
1729114535691088100,36.02008813476562,-0.0012216945178806782,0.039170581847429276,-0.11613733321428299
1729114535724421000,36.053421142578124,-0.020310672000050545,-0.04306473210453987,-0.10430216789245605
1729114535757754000,36.086754150390625,-0.014202198944985867,-0.05077667906880379,-0.13514995574951172
1729114535791087000,36.12008715820313,-0.017180079594254494,-0.045202698558568954,-0.0590994730591774
1729114535824420000,36.15342016601563,0.00916270911693573,-0.05512896552681923,0.026724567636847496
1729114535857753000,36.18675317382812,0.019241688773036003,0.05123481526970863,0.036039989441633224
1729114535891086000,36.220086181640625,-0.0005344913806766272,-0.001985253533348441,0.06818582862615585
1729114535924419300,36.25341943359375,-0.012904148548841476,0.011147962883114815,0.11384665966033936
1729114535957752300,36.28675244140625,0.025808297097682953,-0.01763821393251419,0.03061871975660324
1729114535991085300,36.32008520507812,0.031382277607917786,0.03680354729294777,0.057648710906505585
1729114536024418300,36.353418212890624,-0.010995250195264816,0.00519220158457756,-0.0028251686599105597
1729114536057751300,36.386751220703125,-0.0065666078589856625,0.0016034740256145597,-0.05948125198483467
1729114536091084300,36.42008422851563,-0.005879404954612255,-0.0683385357260704,-0.04130854457616806
1729114536124417300,36.45341723632812,-0.0030542362947016954,-0.01832541823387146,-0.06994201242923737
1729114536157750300,36.48675024414062,0.02367033064365387,-0.01435491070151329,-0.1340046226978302
1729114536191083300,36.520083251953125,0.015271181240677834,0.07826480269432068,-0.06085565686225891
1729114536224416500,36.55341650390625,0.014965757727622986,0.020310672000050545,-0.056961506605148315
1729114536257749500,36.58674951171875,0.014736690558493137,0.010308047756552696,-0.02504473738372326
1729114536291082500,36.62008251953125,0.037948887795209885,0.10483665764331818,0.0361163429915905
1729114536324415500,36.65341552734375,0.00259610079228878,0.07971556484699249,-0.021685076877474785
1729114536357748500,36.68674853515625,0.005879404954612255,0.05291464552283287,0.03298575058579445
1729114536391081500,36.72008154296875,0.008475505746901035,0.031153209507465363,0.0752105712890625
1729114536424414500,36.75341455078125,0.0030542362947016954,-0.013591351918876171,0.07452336698770523
1729114536457747500,36.78674755859375,0.01847812905907631,-0.035352785140275955,0.09956810623407364
1729114536491080400,36.82008056640625,0.0005344913806766272,0.005650337319821119,0.024128466844558716
1729114536524413700,36.85341357421875,0.019394399598240852,0.04825693368911743,0.035505495965480804
1729114536557746700,36.88674658203125,0.008475505746901035,-0.0420721061527729,0.01122431829571724
1729114536591079700,36.92007958984375,0.05123481526970863,0.03894151374697685,0.12468919903039932
1729114536624412700,36.95341259765625,0.007711946498602629,-0.0008399150101467967,-0.06551336497068405
1729114536657745700,36.98674560546875,0.007406522985547781,0.015347537584602833,0.04527905210852623
1729114536691078700,37.02007861328125,0.0032069480512291193,0.0016798300202935934,-0.014583977870643139
1729114536724411600,37.05341162109375,-0.029778804630041122,-0.01817270554602146,-0.038101598620414734
1729114536757744600,37.08674462890625,-0.020616095513105392,-0.018096350133419037,-0.020310672000050545
1729114536791077600,37.12007763671875,0.02817532978951931,-0.04680617153644562,-0.050547610968351364
1729114536824411000,37.15341088867188,0.009009997360408306,0.02038702741265297,-0.023212196305394173
1729114536857744000,37.18674389648437,-0.012216945178806782,0.04306473210453987,-0.017409147694706917
1729114536891076900,37.220076904296874,-0.05825955793261528,0.011453386396169662,0.05360184609889984
1729114536924409900,37.253409912109376,0.06604786217212677,-0.01885990984737873,0.15294088423252106
1729114536957742800,37.28674291992188,0.054365407675504684,-0.0231358390301466,0.020616095513105392
1729114536991075800,37.32007592773437,0.03955236077308655,-0.040544986724853516,0.011682453565299511
1729114537024408800,37.353408935546874,0.052456509321928024,-0.0005344913806766272,0.02076880633831024
1729114537057741800,37.386741943359375,0.060932014137506485,0.020157959312200546,-0.04718795046210289
1729114537091074800,37.42007470703125,0.033443886786699295,0.04703523963689804,-0.02901524491608143
1729114537124408000,37.45340795898438,0.02832804247736931,-0.010308047756552696,-0.06558972597122192
1729114537157741000,37.48674096679687,0.06726955622434616,-0.025731941685080528,-0.009544488042593002
1729114537191074000,37.520073974609375,0.06688777357339859,-0.00992626789957285,-0.0067956759594380856
1729114537224407000,37.553406982421876,0.031153209507465363,0.04459185153245926,0.0008399150101467967
1729114537257740000,37.58673999023438,-0.0011453386396169662,0.02214321307837963,0.0007635590736754239
1729114537291073000,37.62007299804687,0.0397050715982914,0.011606098152697086,0.04993676394224167
1729114537324406000,37.653406005859374,0.044515494257211685,-0.0361163429915905,0.004886778071522713
1729114537357739000,37.686739013671875,0.04062134400010109,-0.014736690558493137,0.012216945178806782
1729114537391072000,37.72007202148438,0.027717193588614464,0.008093725889921188,0.014202198944985867
1729114537424405200,37.7534052734375,0.030542362481355667,0.009773556143045425,0.01710372418165207
1729114537457738200,37.78673828125,0.034818295389413834,-0.010613471269607544,-0.004810422193259001
1729114537491071200,37.8200712890625,0.029855160042643547,0.004504998680204153,-0.0022143214009702206
1729114537524404200,37.853404296875,0.014660334214568138,0.024968381971120834,0.02626643143594265
1729114537557737200,37.8867373046875,0.018783552572131157,0.002748812548816204,-0.0019088976550847292
1729114537591070200,37.9200703125,0.015423892997205257,-0.006719320081174374,0.016721943393349648
1729114537624403200,37.9534033203125,0.0029015245381742716,-0.004657710436731577,0.005421269219368696
1729114537657736200,37.986736083984376,0.023823043331503868,-0.010842538438737392,0.00908635277301073
1729114537691069200,38.02006909179688,0.02664821222424507,-0.008017370477318764,0.006032116711139679
1729114537724402400,38.05340234375,0.012980503961443901,0.001985253533348441,0.004657710436731577
1729114537757735400,38.0867353515625,-0.008475505746901035,-0.0064902519807219505,0.004963133949786425
1729114537791068400,38.120068359375,-0.0011453386396169662,-0.01847812905907631,0.012140588834881783
1729114537824401400,38.1534013671875,0.005726693198084831,-0.018019994720816612,0.00916270911693573
1729114537857734400,38.186734375,0.0029778804164379835,-0.009544488042593002,0.0067956759594380856
1729114537891067400,38.2200673828125,0.0007635590736754239,-0.008857285603880882,0.004810422193259001
1729114537924400400,38.253400390625,-0.0005344913806766272,-0.008704573847353458,0.0051158457063138485
1729114537957733400,38.2867333984375,0.0036650835536420345,-0.004352286923676729,0.00259610079228878
1729114537991066600,38.32006665039062,0.0065666078589856625,-0.0007635590736754239,0.0005344913806766272
1729114538024399600,38.353399658203124,0.0012216945178806782,0.0006108472589403391,-0.00129805039614439
1729114538057732600,38.386732666015625,0.0007635590736754239,0.0005344913806766272,0.0011453386396169662
1729114538091065600,38.42006567382813,-0.0009162708884105086,-0.00259610079228878,0.0014507622690871358
1729114538124398600,38.45339868164063,0.0029015245381742716,0.0011453386396169662,-0.00129805039614439
1729114538157731600,38.48673168945312,-0.0011453386396169662,0.0018325417768210173,-0.0014507622690871358
1729114538191064600,38.520064697265624,-0.0009926267666742206,0.0014507622690871358,-0.0016034740256145597
1729114538224397600,38.5533974609375,0.0019088976550847292,0.0022906772792339325,-0.0017561858985573053
1729114538257730600,38.58673046875,-0.0007635590736754239,0.0016798300202935934,-0.00129805039614439
1729114538291063800,38.62006372070312,0.00129805039614439,0.0006108472589403391,-0.0008399150101467967
1729114538324396800,38.653396728515624,0.0009926267666742206,0.0004581354442052543,-0.00038177953683771193
1729114538357729800,38.686729736328125,-0.00015271181473508477,0.00030542362947016954,0.00007635590736754239
1729114538391062800,38.72006274414063,0.0004581354442052543,-0.000687203137204051,-0.00007635590736754239
1729114538424395800,38.75339575195313,0.0005344913806766272,0,0
1729114538457728800,38.78672875976562,0.0004581354442052543,-0.00015271181473508477,0.00015271181473508477
1729114538491061800,38.820061767578125,0.0008399150101467967,0.00030542362947016954,-0.00007635590736754239
1729114538524394800,38.853394775390626,-0.00015271181473508477,-0.00007635590736754239,-0.00007635590736754239
1729114538557727700,38.88672778320313,0.00038177953683771193,0,-0.0006108472589403391
1729114538591061000,38.92006103515625,-0.00007635590736754239,0.0004581354442052543,-0.000687203137204051
1729114538624394000,38.95339404296875,-0.0017561858985573053,0.0010689827613532543,-0.000687203137204051
1729114538657727000,38.98672705078125,0.0004581354442052543,-0.00015271181473508477,-0.000687203137204051
1729114538691060000,39.02006005859375,-0.004428642801940441,0.0015271181473508477,-0.0012216945178806782
1729114538724393000,39.05339306640625,-0.019088976085186005,0.004123218823224306,-0.002061609411612153
1729114538757726000,39.08672583007812,-0.05467082932591438,0.012446013279259205,-0.004810422193259001
1729114538791059000,39.120058837890625,-0.16538690030574799,0.011682453565299511,-0.0022143214009702206
1729114538824392000,39.153391845703126,-0.30183491110801697,-0.023288551717996597,0.021837789565324783
1729114538857725000,39.18672485351563,-0.5458683967590332,-0.00030542362947016954,0.0008399150101467967
1729114538891058200,39.22005810546875,-0.8571714162826538,0.02817532978951931,-0.002061609411612153
1729114538924391200,39.25339111328125,-1.2567418813705444,-0.00038177953683771193,0.02038702741265297
1729114538957724200,39.28672412109375,-1.6602064371109009,-0.00862821750342846,0.02244863659143448
1729114538991057200,39.32005712890625,-2.058326244354248,-0.01626380905508995,0.03229855000972748
1729114539024390100,39.35339013671875,-2.3734469413757324,-0.027411770075559616,0.034665580838918686
1729114539057723100,39.38672314453125,-2.5501346588134766,-0.03504735976457596,0.04810422286391258
1729114539091056000,39.42005615234375,-2.6072487831115723,-0.03436015918850899,0.0397050715982914
1729114539124389000,39.45338916015625,-2.55326509475708,-0.010078979656100273,0.026724567636847496
