time,seconds_elapsed,z,y,x
1729114176181976300,0.151976318359375,0.13825607299804688,-0.02298886328935623,-0.0045385658740997314
1729114176219911000,0.189910888671875,0.19942665100097656,-0.03241594135761261,-0.003736257553100586
1729114176257845800,0.227845703125,0.11850738525390625,-0.017879903316497803,-0.005607143044471741
1729114176295780400,0.2657802734375,0.1304769515991211,-0.01984962821006775,0.007658444344997406
1729114176333715200,0.303715087890625,0.09620952606201172,-0.008135505020618439,0.011244282126426697
1729114176371649800,0.34164990234375,0.08697986602783203,-0.013449378311634064,0.005823738873004913
1729114176409584600,0.379584716796875,0.06640052795410156,-0.001103326678276062,0.00987386703491211
1729114176447519200,0.417519287109375,0.0633707046508789,-0.011865198612213135,0.006451793015003204
1729114176485454000,0.4554541015625,0.05652141571044922,-0.005701757967472076,-0.002750024199485779
1729114176523389000,0.493388916015625,0.05619335174560547,-0.00713396817445755,0.002316996455192566
1729114176561323500,0.531323486328125,0.05929374694824219,-0.010695226490497589,0.011633172631263733
1729114176599258400,0.56925830078125,0.04710865020751953,0.010582834482192993,0.003384597599506378
1729114176637193000,0.60719287109375,0.043778419494628906,-0.002661176025867462,0.004275791347026825
1729114176675127800,0.6451279296875,0.021587371826171875,-0.015832439064979553,-0.010117024183273315
1729114176713062400,0.6830625,0.03847026824951172,-0.012532107532024384,0.001816093921661377
1729114176750997200,0.720997314453125,0.014087677001953125,-0.004934579133987427,-0.017191335558891296
1729114176788932000,0.75893212890625,0.04007434844970703,-0.006850406527519226,0.002123013138771057
1729114176826866700,0.79686669921875,0.018784523010253906,-0.00828157365322113,-0.009501367807388306
1729114176864801500,0.834801513671875,0.037230491638183594,-0.017120137810707092,-0.005315259099006653
1729114176902736100,0.872736083984375,0.020270347595214844,0.004390336573123932,-0.012156814336776733
1729114176940671000,0.9106708984375,0.011422157287597656,-0.016119010746479034,0.004125036299228668
1729114176978605800,0.948605712890625,0.02362823486328125,-0.0014999359846115112,-0.0009315460920333862
1729114177016540400,0.98654052734375,0.0188140869140625,0.0010130703449249268,-0.003582283854484558
1729114177054475300,1.024475341796875,0.010623931884765625,-0.017244428396224976,-0.005671888589859009
1729114177092409900,1.062409912109375,0.016257286071777344,0.0016638264060020447,0.007917016744613647
1729114177130344700,1.1003447265625,0.023795127868652344,-0.011914066970348358,0.0004397928714752197
1729114177168279600,1.138279541015625,0.0032596588134765625,-0.004405498504638672,-0.009262040257453918
1729114177206214100,1.176214111328125,0.0074291229248046875,-0.007882975041866302,0.011855214834213257
1729114177244149000,1.21414892578125,0.0220794677734375,-0.004847042262554169,0.011322885751724243
1729114177282083800,1.252083740234375,0.014290809631347656,-0.00023734569549560547,-0.0002908855676651001
1729114177320018400,1.290018310546875,-0.00496673583984375,-0.0003744736313819885,-0.00012068450450897217
1729114177357953300,1.327953369140625,0.01503753662109375,-0.005147919058799744,-0.009392216801643372
1729114177395888000,1.36588818359375,0.007256507873535156,0.006049782037734985,0.006588786840438843
1729114177433822700,1.40382275390625,0.0027017593383789062,0.012118935585021973,0.004633985459804535
1729114177471757600,1.441757568359375,0.0059261322021484375,0.00021760165691375732,-0.002638906240463257
1729114177509692400,1.4796923828125,0.0012655258178710938,0.004657059907913208,-0.00034937262535095215
1729114177547627000,1.517626953125,0.00301361083984375,-0.0015827715396881104,-0.01160399615764618
1729114177585561900,1.555561767578125,0.0024347305297851562,-0.0017002150416374207,0.005239047110080719
1729114177623496700,1.59349658203125,-0.0010938644409179688,0.003327988088130951,-0.004501253366470337
1729114177661431300,1.631431396484375,0.006184577941894531,0.005900666117668152,0.0025350674986839294
1729114177699366100,1.6693662109375,0.010540008544921875,-0.0014536082744598389,0.00026334822177886963
1729114177737300700,1.70730078125,0.0052585601806640625,0.0010135546326637268,-0.0021571964025497437
1729114177775235600,1.745235595703125,0.0023040771484375,0.0060125067830085754,0.003226734697818756
1729114177813170400,1.78317041015625,0.015870094299316406,-0.0007271617650985718,0.005929417908191681
1729114177851105000,1.82110498046875,-0.003307342529296875,0.00886109471321106,0.0008030980825424194
1729114177889040000,1.859039794921875,0.005843162536621094,0.0035737454891204834,0.008020073175430298
1729114177926974700,1.896974609375,-0.0058441162109375,0.0039055868983268738,0.0029181167483329773
1729114177964909300,1.934909423828125,0.0108642578125,0.0014146417379379272,-0.004145041108131409
1729114178002844200,1.97284423828125,0.003032684326171875,-0.0010584443807601929,0.001716218888759613
1729114178040779000,2.010779052734375,0.0101165771484375,-0.008290424942970276,0.0020289793610572815
1729114178078713600,2.048713623046875,0.013795852661132812,0.004879742860794067,-0.014148861169815063
1729114178116648400,2.0866484375,0.002002716064453125,0.002550773322582245,0.004751019179821014
1729114178154583300,2.124583251953125,-0.004370689392089844,0.002592898905277252,-0.014192476868629456
1729114178192518000,2.162517822265625,0.004767417907714844,-0.002020038664340973,-0.015385493636131287
1729114178230452700,2.20045263671875,0.0048809051513671875,-0.004625953733921051,-0.010838612914085388
1729114178268387600,2.2383876953125,0.0038509368896484375,0.0002098381519317627,0.008290991187095642
1729114178306322200,2.276322265625,-0.0186767578125,0.0004185289144515991,0.003160811960697174
1729114178344257000,2.314257080078125,0.013485908508300781,0.00018721073865890503,0.01190611720085144
1729114178382191600,2.352191650390625,-0.0014123916625976562,0.006907045841217041,-0.011726707220077515
1729114178420126500,2.39012646484375,0.014942169189453125,-0.0011839792132377625,0.0007552057504653931
1729114178458061300,2.428061279296875,0.0005140304565429688,0.0036581680178642273,-0.010865122079849243
1729114178495996000,2.465995849609375,-0.005822181701660156,0.003690361976623535,0.012559577822685242
1729114178533930800,2.5039306640625,-0.001674652099609375,0.0018343552947044373,-0.016975104808807373
1729114178571865600,2.541865478515625,-0.0008649826049804688,0.0068086981773376465,0.002233758568763733
1729114178609800200,2.57980029296875,0.0007352828979492188,0.006628811359405518,-0.0070308297872543335
1729114178647735000,2.617735107421875,0.0035448074340820312,-0.006862737238407135,0.006586037576198578
1729114178685670000,2.655669921875,-0.010532379150390625,-0.0041794851422309875,0.000023692846298217773
1729114178723604500,2.6936044921875,-0.00286102294921875,0.005224265158176422,0.013469263911247253
1729114178761539300,2.731539306640625,0.008375167846679688,0.013510502874851227,0.01030324399471283
1729114178799474200,2.76947412109375,-0.00119781494140625,-0.005356438457965851,-0.005832180380821228
1729114178837408800,2.80740869140625,0.004459381103515625,-0.004645876586437225,-0.010299474000930786
1729114178875343600,2.845343505859375,0.0038518905639648438,0.011352822184562683,0.003914348781108856
1729114178913278500,2.883278564453125,0.010345458984375,-0.007432803511619568,0.003530927002429962
1729114178951213000,2.921213134765625,0.0005617141723632812,-0.002209298312664032,-0.005601078271865845
1729114178989148000,2.95914794921875,-0.0064067840576171875,-0.009357325732707977,-0.00045464932918548584
1729114179027082800,2.997082763671875,-0.0013179779052734375,0.007142774760723114,-0.011671751737594604
1729114179065017300,3.035017333984375,0.001087188720703125,-0.0025256648659706116,-0.0013456493616104126
1729114179102952200,3.0729521484375,-0.007947921752929688,0.0019134432077407837,0.0049760714173316956
1729114179140887000,3.110886962890625,-0.0010576248168945312,0.0000956505537033081,0.004583247005939484
1729114179178821600,3.148821533203125,-0.005214691162109375,-0.006550595164299011,-0.004522249102592468
1729114179216756500,3.186756591796875,0.008287429809570312,-0.0014210119843482971,0.0019203722476959229
1729114179254691300,3.22469140625,0.0011119842529296875,-0.0037788301706314087,-0.0008786916732788086
1729114179292626000,3.2626259765625,0.008527755737304688,-0.006083816289901733,0.0033849701285362244
1729114179330560800,3.300560791015625,0.010245323181152344,0.005777589976787567,0.0014054477214813232
1729114179368495600,3.33849560546875,-0.0022916793823242188,0.0010302290320396423,-0.01430557668209076
1729114179406430200,3.37643017578125,-0.014606475830078125,-0.0033471882343292236,0.00020773708820343018
1729114179444365000,3.414364990234375,0.012849807739257812,-0.005881451070308685,-0.004979312419891357
1729114179482299600,3.452299560546875,-0.0038661956787109375,0.00795762985944748,0.0019885748624801636
1729114179520234500,3.490234375,0.007227897644042969,-0.011061154305934906,0.002021700143814087
1729114179558169300,3.52816943359375,-0.004103660583496094,0.002704806625843048,0.008818477392196655
1729114179596104000,3.56610400390625,0.0009908676147460938,-0.004136167466640472,-0.0030824393033981323
1729114179634038800,3.604038818359375,0.0010089874267578125,-0.0015251338481903076,0.008810266852378845
1729114179671973600,3.6419736328125,0.00328826904296875,0.00291365385055542,0.003442712128162384
1729114179709908200,3.679908203125,0.0028076171875,0.012021392583847046,0.005085833370685577
1729114179747843000,3.717843017578125,-0.013199806213378906,0.0001940801739692688,0.011964768171310425
1729114179785778000,3.75577783203125,0.0031728744506835938,-0.0022140294313430786,-0.014051854610443115
1729114179823712500,3.79371240234375,0.005341529846191406,-0.0029784291982650757,-0.002362266182899475
1729114179861647400,3.8316474609375,0.0008716583251953125,-0.007451638579368591,-0.014295831322669983
1729114179899582200,3.869582275390625,-0.017061233520507812,0.00491226464509964,0.000056684017181396484
1729114179937516800,3.907516845703125,0.012417793273925781,0.004738256335258484,-0.0020847171545028687
1729114179975451600,3.94545166015625,-0.013669967651367188,-0.013738751411437988,0.00026954710483551025
1729114180013386500,3.983386474609375,0.012803077697753906,-0.009219326078891754,-0.00956358015537262
1729114180051321000,4.021321044921875,-0.006793975830078125,-0.00658562034368515,0.004406280815601349
1729114180089256000,4.059255859375,-0.0015363693237304688,-0.005911476910114288,-0.004721000790596008
1729114180127190500,4.0971904296875,0.0031499862670898438,0.0057858750224113464,0.013642095029354095
1729114180165125400,4.13512548828125,-0.00133514404296875,-0.0040075331926345825,-0.0005234181880950928
1729114180203060200,4.173060302734375,0.0003185272216796875,0.00974193960428238,0.006655514240264893
1729114180240994800,4.210994873046875,0.00028324127197265625,0.0021790191531181335,-0.0053685009479522705
1729114180278929700,4.2489296875,0.0003795623779296875,0.002461865544319153,0.010897204279899597
1729114180316864500,4.286864501953125,-0.008955955505371094,0.011358886957168579,-0.011898383498191833
1729114180354799000,4.324799072265625,0.00708770751953125,-0.004949487745761871,-0.008867591619491577
1729114180392734000,4.36273388671875,0.0002956390380859375,0.004227295517921448,-0.010562211275100708
1729114180430668500,4.40066845703125,0.009057998657226562,-0.005408875644207001,-0.005794614553451538
1729114180468603400,4.438603271484375,-0.019306182861328125,-0.0010421276092529297,0.008647546172142029
1729114180506538200,4.476538330078125,0.007147789001464844,-0.00973241776227951,0.007731527090072632
1729114180544472800,4.514472900390625,-0.0006580352783203125,-0.002782180905342102,0.014047689735889435
1729114180582407700,4.55240771484375,0.006575584411621094,0.00012856721878051758,-0.006849214434623718
1729114180620342500,4.590342529296875,0.0061168670654296875,0.007038004696369171,-0.0036364495754241943
1729114180658277000,4.628277099609375,-0.009866714477539062,0.0024886131286621094,0.005756445229053497
1729114180696212000,4.6662119140625,0.00865936279296875,0.002847917377948761,-0.00092296302318573
1729114180734146800,4.704146728515625,-0.009736061096191406,0.004427619278430939,0.0011458992958068848
1729114180772081400,4.742081298828125,0.0043773651123046875,0.008975252509117126,0.003264032304286957
1729114180810016300,4.780016357421875,-0.014060020446777344,-0.00051107257604599,0.003726758062839508
1729114180847951000,4.817951171875,0.0029115676879882812,-0.012384869158267975,-0.0006560385227203369
1729114180885885700,4.8558857421875,-0.008204460144042969,-0.000490829348564148,-0.007462412118911743
1729114180923820500,4.893820556640625,0.011023521423339844,0.0014274343848228455,-0.0024572908878326416
1729114180961755100,4.931755126953125,-0.00574493408203125,0.005925372242927551,0.0024068355560302734
1729114180999690000,4.96968994140625,0.01296234130859375,0.00543656200170517,0.002468675374984741
1729114181037624800,5.007624755859375,0.0035228729248046875,-0.0009055659174919128,-0.004277616739273071
1729114181075559400,5.045559326171875,0.0037689208984375,0.0012062489986419678,0.00241050124168396
1729114181113494300,5.083494384765625,-0.010584831237792969,-0.003291219472885132,0.0022354573011398315
1729114181151429000,5.12142919921875,0.003998756408691406,-0.003309279680252075,-0.006860688328742981
1729114181189363700,5.15936376953125,0.010097503662109375,-0.003432072699069977,-0.011474549770355225
1729114181227298600,5.197298583984375,-0.0015439987182617188,-0.012348935008049011,-0.0020241737365722656
1729114181265233400,5.2352333984375,-0.0055255889892578125,0.0018261894583702087,-0.011281400918960571
1729114181303168000,5.27316796875,0.008260726928710938,0.0036529749631881714,-0.00034262239933013916
1729114181341102800,5.311102783203125,-0.0031833648681640625,-0.013955190777778625,-0.000008821487426757812
1729114181379037400,5.349037353515625,-0.0005779266357421875,-0.009037420153617859,0.003951258957386017
1729114181416972300,5.38697216796875,0.0077724456787109375,0.000520557165145874,0.0029842928051948547
1729114181454907100,5.4249072265625,0.005549430847167969,0.002372048795223236,0.0006169676780700684
1729114181492841700,5.462841796875,-0.0018329620361328125,-0.004744723439216614,-0.0012559443712234497
1729114181530776600,5.500776611328125,-0.008672714233398438,-0.0045636966824531555,-0.010569944977760315
1729114181568711400,5.53871142578125,0.0069599151611328125,-0.008311621844768524,0.0016023814678192139
1729114181606646000,5.57664599609375,0.00281524658203125,0.0058264657855033875,-0.004768386483192444
1729114181644580900,5.614580810546875,0.0005035400390625,-0.0015535429120063782,0.00675211101770401
1729114181682515700,5.652515625,-0.00382232666015625,-0.0036103948950767517,0.007004238665103912
1729114181720450300,5.6904501953125,0.007645606994628906,-0.001300320029258728,-0.0005598962306976318
1729114181758385200,5.72838525390625,0.0009164810180664062,-0.007923804223537445,-0.007169008255004883
1729114181796319700,5.76631982421875,-0.0019435882568359375,0.01344403624534607,-0.009314104914665222
1729114181834254600,5.804254638671875,0.00040340423583984375,-0.0034222304821014404,-0.0021796375513076782
1729114181872189400,5.842189453125,0.0008640289306640625,-0.005149319767951965,0.002929016947746277
1729114181910124000,5.8801240234375,-0.008524894714355469,-0.0006225407123565674,0.00045646727085113525
1729114181948059000,5.918058837890625,0.014757156372070312,-0.0028050318360328674,-0.007006213068962097
1729114181985993700,5.95599365234375,0.000476837158203125,0.0038081929087638855,0.006815977394580841
1729114182023928300,5.99392822265625,-0.0015840530395507812,0.0009141713380813599,-0.00007303059101104736
1729114182061863200,6.03186328125,-0.01322174072265625,0.0006329864263534546,0.0065694525837898254
1729114182099797800,6.0697978515625,0.02200031280517578,-0.0039556920528411865,-0.004819363355636597
1729114182137732600,6.107732666015625,-0.0134124755859375,0.003028199076652527,-0.00947985053062439
1729114182175667500,6.14566748046875,0.003490447998046875,0.00533883273601532,0.0030624568462371826
1729114182213602000,6.18360205078125,0.0075130462646484375,-0.008533380925655365,0.0050594136118888855
1729114182251537000,6.221536865234375,0.0049419403076171875,-0.004202783107757568,0.002347126603126526
1729114182289471500,6.259471435546875,-0.00023651123046875,0.007946208119392395,-0.002609074115753174
1729114182327406300,6.29740625,-0.0046062469482421875,0.0029362067580223083,-0.011556968092918396
1729114182365341200,6.335341064453125,0.0041828155517578125,0.006792247295379639,-0.00223386287689209
1729114182403275800,6.37327587890625,-0.005314826965332031,-0.006873369216918945,-0.000040084123611450195
1729114182441210600,6.411210693359375,0.00028324127197265625,0.00017897039651870728,-0.004469007253646851
1729114182479145500,6.4491455078125,0.0018825531005859375,0.006486810743808746,0.002234935760498047
1729114182517080000,6.487080078125,-0.009249687194824219,0.0018971115350723267,0.00004017353057861328
1729114182555015000,6.525014892578125,0.0066986083984375,-0.005084216594696045,-0.00432509183883667
1729114182592949500,6.562949462890625,-0.005208015441894531,-0.0026440098881721497,0.011668190360069275
1729114182630884400,6.60088427734375,-0.0025081634521484375,-0.004763484001159668,-0.00498354434967041
1729114182668819200,6.638819091796875,-0.011659622192382812,-0.0000947713851928711,-0.002149432897567749
1729114182706753800,6.67675390625,0.012086868286132812,-0.007008537650108337,0.009065523743629456
1729114182744688600,6.714688720703125,-0.002407073974609375,-0.002323158085346222,0.011122673749923706
1729114182782623200,6.752623291015625,0.007397651672363281,-0.000027298927307128906,0.00596686452627182
1729114182820558000,6.79055810546875,0.000316619873046875,-0.00227249413728714,-0.0013981163501739502
1729114182858493000,6.828492919921875,-0.0037384033203125,-0.008796937763690948,-0.010743588209152222
1729114182896427500,6.866427490234375,-0.0038385391235351562,0.0037440210580825806,0.009838983416557312
1729114182934362400,6.9043623046875,-0.0016613006591796875,0.0014720186591148376,-0.003099396824836731
1729114182972297200,6.942297119140625,0.005428314208984375,-0.00797901302576065,-0.001071736216545105
1729114183010231800,6.980231689453125,0.0006914138793945312,-0.005436442792415619,-0.0056127458810806274
1729114183048166700,7.018166748046875,-0.047043800354003906,0.33283668756484985,-0.0027785450220108032
1729114183086101200,7.056101318359375,0.001068115234375,0.6089274883270264,0.07308560609817505
1729114183124036000,7.0940361328125,0.035846710205078125,0.7668484449386597,0.07448793947696686
1729114183161971000,7.131970947265625,-0.07086467742919922,0.9675071239471436,0.18188202381134033
1729114183199905500,7.169905517578125,-0.10129070281982422,1.017676591873169,0.09641650319099426
1729114183237840400,7.20784033203125,-0.12234020233154297,1.14712393283844,0.15058612823486328
1729114183275775200,7.245775146484375,-0.0044994354248046875,0.8799649477005005,0.05679613724350929
1729114183313709800,7.283709716796875,0.10629081726074219,0.8468180894851685,-0.03633734583854675
1729114183351644700,7.321644775390625,0.047705650329589844,0.7694144248962402,0.07108219712972641
1729114183389579300,7.359579345703125,0.18395137786865234,0.970906138420105,0.17472238838672638
1729114183427514000,7.39751416015625,0.31002330780029297,1.1244019269943237,0.32566291093826294
1729114183465448700,7.43544873046875,0.32990550994873047,1.2711896896362305,0.5014353394508362
1729114183503383600,7.473383544921875,-1.989924430847168,1.2890064716339111,0.055081285536289215
1729114183541318400,7.511318359375,0.6142511367797852,0.40268421173095703,0.037657611072063446
1729114183579253000,7.5492529296875,1.30322265625,-0.010702252388000488,0.5236630439758301
1729114183617187800,7.587187744140625,1.0111141204833984,-0.27905452251434326,-0.10199183970689774
1729114183655122700,7.625122802734375,0.8249702453613281,-0.7046731114387512,-0.03983643651008606
1729114183693057300,7.663057373046875,0.1497507095336914,-0.46834737062454224,0.052062198519706726
1729114183730992000,7.7009921875,1.1547126770019531,-1.7578682899475098,0.282661110162735
1729114183768926700,7.7389267578125,2.769266128540039,-0.8448536396026611,0.2843850553035736
1729114183806861600,7.776861572265625,-2.818598747253418,-0.25757157802581787,0.6156840324401855
1729114183844796400,7.81479638671875,3.4794092178344727,-0.8427421450614929,-0.19966202974319458
1729114183882731000,7.85273095703125,-1.7402410507202148,-0.32939350605010986,-0.09897984564304352
1729114183920665900,7.890665771484375,-0.2846527099609375,-0.29890263080596924,0.21912544965744019
1729114183958600400,7.928600341796875,1.2094478607177734,-0.5093732476234436,0.16597114503383636
1729114183996535300,7.966535400390625,-0.8377418518066406,-0.9150303602218628,-0.39333605766296387
1729114184034470100,8.00447021484375,3.440718650817871,-0.8987421989440918,0.21698056161403656
1729114184072404700,8.04240478515625,-3.0912418365478516,-0.14352375268936157,-0.7579526305198669
1729114184110339600,8.080339599609376,-1.4555139541625977,0.12912309169769287,-0.42629486322402954
1729114184148274200,8.118274169921875,0.9555721282958984,-0.9911788702011108,-0.06160556524991989
1729114184186209000,8.156208984375,-0.0074291229248046875,-0.8321035504341125,0.39897584915161133
1729114184224144000,8.194143798828126,-2.9824771881103516,-0.0332111120223999,0.46685945987701416
1729114184262078500,8.232078369140625,1.4956560134887695,-0.9511291980743408,0.13554663956165314
1729114184300013300,8.270013427734375,0.896540641784668,-0.5415514707565308,0.03681635111570358
1729114184337948200,8.3079482421875,-0.46819210052490234,-0.422172486782074,-0.7741703987121582
1729114184375882800,8.3458828125,1.1448688507080078,-0.6146671772003174,0.0896746814250946
1729114184413817600,8.383817626953125,2.6988210678100586,-1.5756727457046509,0.257389634847641
1729114184451752200,8.421752197265626,-4.495903015136719,-0.2614688277244568,-1.3765376806259155
1729114184489687000,8.45968701171875,-2.432000160217285,-1.0007554292678833,-1.0334528684616089
1729114184527622000,8.497621826171875,0.6360292434692383,-0.8454505801200867,-0.4416966736316681
1729114184565556500,8.535556396484376,-1.5769777297973633,0.11897909641265869,-0.31563717126846313
1729114184603491300,8.5734912109375,1.4678459167480469,-1.0891063213348389,-0.264838308095932
1729114184641426000,8.611426025390625,3.612668991088867,-0.4441817104816437,0.5673587322235107
1729114184679360800,8.64936083984375,-2.8133187294006348,0.22847622632980347,-0.7185770869255066
1729114184717295600,8.687295654296875,-0.28285980224609375,-0.3908575773239136,-0.45996105670928955
1729114184755230200,8.725230224609374,-1.5125837326049805,-0.17307966947555542,-0.31309041380882263
1729114184793165000,8.7631650390625,1.4085445404052734,-0.37348344922065735,0.12180788069963455
1729114184831099600,8.801099609375,-1.9805307388305664,0.3381335139274597,-0.37994468212127686
1729114184869034500,8.839034423828124,-2.398552894592285,-0.04339379072189331,-0.6023263931274414
1729114184906969300,8.87696923828125,-0.3435640335083008,-0.03883904218673706,-0.4939349591732025
1729114184944904000,8.914904052734375,1.694636344909668,-1.3518455028533936,-0.21249064803123474
1729114184982838800,8.9528388671875,-1.1288633346557617,-0.1959933042526245,0.008912794291973114
1729114185020773400,8.9907734375,0.6596260070800781,-0.9315342903137207,0.36095404624938965
1729114185058708200,9.028708251953125,0.8576755523681641,-0.31116414070129395,-0.17049461603164673
1729114185096642800,9.066642822265624,1.209794044494629,0.24031221866607666,-0.13856817781925201
1729114185134577700,9.10457763671875,1.8824491500854492,-0.8820391893386841,0.003345780074596405
1729114185172512500,9.142512451171875,2.636371612548828,-0.6174416542053223,0.20548835396766663
1729114185210447000,9.180447021484374,-4.5626749992370605,-0.10022950172424316,-0.9964510798454285
1729114185248382000,9.2183818359375,-1.4979629516601562,-0.711756706237793,-0.4705126881599426
1729114185286316800,9.25631689453125,-1.5962820053100586,-0.39658883213996887,0.3943062722682953
1729114185324251400,9.29425146484375,-5.0306501388549805,0.921968400478363,-0.04599510133266449
1729114185362186200,9.332186279296875,0.989649772644043,-1.0276292562484741,-0.16307342052459717
1729114185400120800,9.370120849609375,3.0925207138061523,-0.7207980155944824,0.0909273624420166
1729114185438055700,9.4080556640625,1.6987504959106445,-0.6360776424407959,-0.13939625024795532
1729114185475990300,9.445990234375,2.8766231536865234,-0.6780722141265869,0.8614642024040222
1729114185513925000,9.483925048828125,-2.3626480102539062,-0.2430281639099121,-0.592654824256897
1729114185551860000,9.52185986328125,-1.4455146789550781,-1.019268274307251,-0.5217552781105042
1729114185589794600,9.559794677734375,1.1460466384887695,-1.6040635108947754,-0.024439692497253418
1729114185627729400,9.5977294921875,-0.12535572052001953,0.06120413541793823,-0.03293580561876297
1729114185665664300,9.635664306640624,1.0211553573608398,0.08188414573669434,0.5656528472900391
1729114185703598800,9.673598876953125,3.0307493209838867,-0.26324617862701416,-0.1015668511390686
1729114185741533700,9.71153369140625,2.2079076766967773,-1.3016974925994873,-0.03218470513820648
1729114185779468300,9.74946826171875,-1.0888137817382812,-0.27606919407844543,0.4359669089317322
1729114185817403100,9.787403076171875,2.959371566772461,-0.010661721229553223,-0.031675033271312714
1729114185855337700,9.825337646484375,0.29430389404296875,-0.7532109022140503,0.129902645945549
1729114185893272600,9.8632724609375,0.05327606201171875,0.1795453429222107,-0.22136437892913818
1729114185931207400,9.90120751953125,0.39436817169189453,-0.06676462292671204,-0.10435615479946136
1729114185969142000,9.93914208984375,-1.2872867584228516,-0.6136939525604248,0.6559309959411621
1729114186007076900,9.977076904296876,3.41348934173584,-1.1384382247924805,0.06456170231103897
1729114186045011500,10.015011474609375,-2.954681873321533,0.30195462703704834,-0.5130261182785034
1729114186082946300,10.0529462890625,2.5187435150146484,-0.2124805748462677,0.3254503607749939
1729114186120881200,10.090881103515626,0.27287960052490234,0.11028805375099182,0.42404282093048096
1729114186158815700,10.128815673828125,-2.9012298583984375,-0.7723413109779358,-1.5578135251998901
1729114186196750600,10.16675048828125,-1.1751165390014648,-0.7181417942047119,-0.7015374898910522
1729114186234685200,10.204685302734376,1.152730941772461,-0.07619538903236389,-0.5945948362350464
1729114186272620000,10.2426201171875,-1.4924211502075195,0.48222094774246216,0.5033746361732483
1729114186310555000,10.280554931640625,0.5102434158325195,-0.9929617643356323,-0.30465811491012573
1729114186348489500,10.318489501953126,0.38907623291015625,-0.34929823875427246,-0.4729100465774536
1729114186386424300,10.35642431640625,-4.372148036956787,-0.7046228647232056,-0.23603644967079163
1729114186424359000,10.39435888671875,1.0319852828979492,-0.01479947566986084,0.7629398107528687
1729114186462293800,10.432293701171876,-2.6448240280151367,-0.1805194765329361,-0.47120964527130127
1729114186500228400,10.470228271484375,4.612211227416992,-1.5042123794555664,-0.14530563354492188
1729114186538163200,10.5081630859375,-2.2998008728027344,-0.3207739591598511,0.36476677656173706
1729114186576098000,10.54609814453125,-0.31580352783203125,0.2676997184753418,0.7718797326087952
1729114186614032600,10.58403271484375,0.2653179168701172,-0.2082342654466629,-0.735275387763977
1729114186651967500,10.621967529296874,4.360179901123047,-0.1603180170059204,-0.05515115708112717
1729114186689902000,10.659902099609376,-1.1764945983886719,-0.3493686020374298,-0.1473790407180786
1729114186727837000,10.6978369140625,2.0226993560791016,-0.3042715787887573,0.17239010334014893
1729114186765771800,10.735771728515624,-0.9470005035400391,-0.20375075936317444,-0.21465834975242615
1729114186803706400,10.773706298828126,3.198328971862793,-0.6339079141616821,0.15327990055084229
1729114186841641200,10.81164111328125,-2.8221120834350586,-0.3512425422668457,-0.15451902151107788
1729114186879575800,10.849575927734374,-0.7470769882202148,-0.20316335558891296,0.5523526072502136
1729114186917510700,10.8875107421875,-0.0880279541015625,-0.994942843914032,-0.23565027117729187
1729114186955445500,10.925445556640625,3.4991817474365234,-0.6606875658035278,-0.3740905523300171
1729114186993380000,10.963380126953124,-0.7903690338134766,-0.19326333701610565,-0.9005689024925232
1729114187031315000,11.00131494140625,-0.17333412170410156,0.8318790197372437,0.2982290983200073
1729114187069249500,11.03924951171875,1.743062973022461,-0.9760797023773193,0.2640236020088196
1729114187107184400,11.077184326171874,3.7728776931762695,0.12697070837020874,0.14133931696414948
1729114187145119000,11.115118896484375,-4.759790897369385,0.613839864730835,-0.8795856237411499
1729114187183053800,11.1530537109375,-0.18653297424316406,-0.08660182356834412,0.21005608141422272
1729114187220988700,11.19098876953125,0.7172307968139648,-0.6296951770782471,-0.10923980176448822
1729114187258923300,11.22892333984375,-5.0563435554504395,0.48231008648872375,-0.8495428562164307
1729114187296858000,11.266858154296875,2.3852787017822266,0.0808212161064148,0.23696616291999817
1729114187334792700,11.304792724609374,-2.799651622772217,-0.6230807900428772,1.190261960029602
1729114187372727600,11.3427275390625,4.041515350341797,-0.2797573208808899,-0.0760134607553482
1729114187410662400,11.380662353515625,-1.5755128860473633,-0.06301762163639069,-1.0109943151474
1729114187448597000,11.418596923828124,0.4856071472167969,-0.31505370140075684,-0.5052554607391357
1729114187486531800,11.45653173828125,1.039236068725586,-0.4053186774253845,0.4360692501068115
1729114187524466400,11.494466552734375,-1.179978370666504,0.062089741230010986,0.23385769128799438
1729114187562401300,11.5324013671875,1.2766952514648438,-0.9465463161468506,0.09796175360679626
1729114187600336100,11.570336181640625,0.7236061096191406,-0.13646520674228668,0.6154521703720093
1729114187638270700,11.608270751953125,0.9100065231323242,0.042431049048900604,-0.1035982072353363
1729114187676205600,11.64620556640625,-1.5960893630981445,0.12461383640766144,-0.6173739433288574
1729114187714140200,11.68414013671875,1.0316848754882812,-0.7840133905410767,-0.06103093922138214
1729114187752075000,11.722074951171875,0.954106330871582,-1.0983366966247559,0.29787689447402954
1729114187790009600,11.760009521484376,0.6760673522949219,-1.075526475906372,0.36205607652664185
1729114187827944400,11.7979443359375,-1.6581449508666992,-0.5085415244102478,-0.07455446571111679
1729114187865879300,11.83587939453125,-0.43415164947509766,-2.026700496673584,-0.313443660736084
1729114187903814000,11.87381396484375,0.7026519775390625,-1.9106087684631348,-0.19264274835586548
1729114187941748700,11.911748779296875,-0.7185230255126953,-1.553801417350769,0.2664937973022461
1729114187979683600,11.94968359375,1.0158700942993164,-2.3097753524780273,0.19673770666122437
1729114188017618200,11.9876181640625,-0.6046342849731445,-2.244574785232544,-0.0746651291847229
1729114188055553000,12.025552978515625,0.3312416076660156,-2.1406872272491455,0.44749715924263
1729114188093487600,12.063487548828125,-0.5963802337646484,-1.9958444833755493,0.10935316979885101
1729114188131422500,12.10142236328125,0.2765016555786133,-2.5975871086120605,0.5371503829956055
1729114188169357000,12.139357177734375,0.9034242630004883,-2.1124632358551025,0.46015894412994385
1729114188207292000,12.1772919921875,-0.5885534286499023,-1.9353142976760864,-0.18436655402183533
1729114188245226800,12.215226806640626,0.8314523696899414,-2.0242130756378174,-0.26333120465278625
1729114188283161300,12.253161376953125,-0.6018543243408203,-1.7571604251861572,-0.10878884792327881
1729114188321096200,12.29109619140625,0.508641242980957,-1.9495975971221924,0.005241364240646362
1729114188359030800,12.32903076171875,-0.3174295425415039,-1.7123223543167114,0.034967511892318726
1729114188396965600,12.366965576171875,0.19525623321533203,-1.3067467212677002,-0.009548917412757874
1729114188434900200,12.404900146484374,-0.15163707733154297,-0.6933280229568481,-0.04700450599193573
1729114188472835000,12.4428349609375,0.11357402801513672,-0.3492157757282257,-0.017819076776504517
1729114188510770000,12.48077001953125,-0.06123542785644531,0.04496610164642334,-0.05899864435195923
1729114188548704500,12.51870458984375,0.022138595581054688,0.31650200486183167,-0.017386317253112793
1729114188586639400,12.556639404296876,-0.03564643859863281,0.4831455945968628,-0.08536314964294434
1729114188624574000,12.594573974609375,0.04285621643066406,0.5305980443954468,0.22373858094215393
1729114188662508800,12.6325087890625,-0.09234428405761719,0.637658417224884,0.12717464566230774
1729114188700443400,12.670443359375,0.05052947998046875,0.5587460994720459,-0.14231020212173462
1729114188738378200,12.708378173828125,-0.01043701171875,0.4736179709434509,0.04696483165025711
1729114188776313000,12.74631298828125,0.019347190856933594,0.3506093919277191,0.002285793423652649
1729114188814247700,12.78424755859375,-0.01589679718017578,0.2497057169675827,0.00650797039270401
1729114188852182500,12.8221826171875,0.011331558227539062,0.1437380313873291,0.006801478564739227
1729114188890117000,12.8601171875,-0.0023241043090820312,0.07462272047996521,-0.02013085037469864
1729114188928052000,12.898052001953126,0.014383316040039062,0.03936135768890381,0.00423344224691391
1729114188965986600,12.935986572265625,0.0067996978759765625,0.03266806900501251,-0.009328357875347137
1729114189003921400,12.97392138671875,-0.009007453918457031,0.033703625202178955,-0.00582084059715271
1729114189041856300,13.011856201171875,0.0003833770751953125,0.04945284128189087,0.0038171783089637756
1729114189079790800,13.049790771484375,-0.004179954528808594,0.06814976036548615,-0.0033985376358032227
1729114189117725700,13.0877255859375,0.003429412841796875,0.0866050273180008,0.008410051465034485
1729114189155660300,13.125660400390625,-0.0015888214111328125,0.10532441735267639,0.0014603734016418457
1729114189193595100,13.16359521484375,-0.00128936767578125,0.09399187564849854,0.0034031942486763
1729114189231530000,13.201530029296874,0.014804840087890625,0.06853625178337097,-0.006279550492763519
1729114189269464600,13.239464599609375,-0.0037517547607421875,0.06268247961997986,0.012205272912979126
1729114189307399400,13.2773994140625,0.010595321655273438,0.03539586067199707,-0.009246639907360077
1729114189345334000,13.315333984375,-0.006000518798828125,0.048973068594932556,-0.0061435699462890625
1729114189383268900,13.353268798828125,0.007709503173828125,0.025913625955581665,0.010096386075019836
1729114189421203500,13.391203369140625,-0.013600349426269531,0.018654391169548035,-0.017510652542114258
1729114189459138300,13.42913818359375,0.021536827087402344,0.013666853308677673,0.003819972276687622
1729114189497073200,13.4670732421875,-0.01834869384765625,0.023035883903503418,0.0033991411328315735
1729114189535007700,13.5050078125,0.0053691864013671875,0.029384322464466095,0.003483898937702179
1729114189572942600,13.542942626953124,0.00026702880859375,0.02124643325805664,-0.006203874945640564
1729114189610877200,13.580877197265625,0.003253936767578125,0.02803671360015869,0.005113556981086731
1729114189648812000,13.61881201171875,-0.003753662109375,0.01902221143245697,-0.004139609634876251
1729114189686747000,13.656746826171876,0.01059722900390625,0.019647665321826935,-0.0012118741869926453
1729114189724681500,13.694681396484375,0.009703636169433594,0.019477836787700653,-0.003502368927001953
1729114189762616300,13.7326162109375,-0.011570930480957031,0.0063631534576416016,0.0034154728055000305
1729114189800551000,13.770551025390626,-0.009816169738769531,0.014286838471889496,0.049196742475032806
1729114189838485800,13.80848583984375,-0.014649391174316406,0.0305417999625206,0.017054080963134766
1729114189876420600,13.846420654296875,0.024759292602539062,0.013980001211166382,0.04775000363588333
1729114189914355200,13.884355224609376,-0.008288383483886719,-0.07741193473339081,0.13627655804157257
1729114189952290000,13.9222900390625,-0.1649150848388672,0.28975799679756165,-0.09541387856006622
1729114189990224600,13.960224609375,0.16790199279785156,0.40229642391204834,-0.026219844818115234
1729114190028159500,13.998159423828126,-0.22774696350097656,0.7613670825958252,0.9309431314468384
1729114190066094000,14.036093994140625,-0.1837148666381836,0.6664360165596008,0.932323157787323
1729114190104029000,14.07402880859375,-0.17728424072265625,0.6542077660560608,1.10456120967865
1729114190141963800,14.1119638671875,0.14264678955078125,0.2368752360343933,1.0556983947753906
1729114190179898400,14.1498984375,-0.037014007568359375,0.30012884736061096,1.213862419128418
1729114190217833200,14.187833251953125,-0.031891822814941406,-0.3116653561592102,0.5925281643867493
1729114190255767800,14.225767822265626,-0.02254962921142578,-0.04357685148715973,1.2159197330474854
1729114190293702700,14.26370263671875,0.027449607849121094,-0.17181749641895294,0.568289577960968
1729114190331637200,14.30163720703125,-0.5969438552856445,-0.13602149486541748,-0.43346258997917175
1729114190369572000,14.339572021484376,-0.4033393859863281,-0.22532868385314941,-0.2338254600763321
1729114190407507000,14.3775068359375,-0.4763002395629883,0.06839363276958466,0.09880272299051285
1729114190445441500,14.415441650390624,-0.4900245666503906,0.26993507146835327,0.3927099406719208
1729114190483376400,14.45337646484375,-0.02239990234375,0.02085086703300476,0.06017974764108658
1729114190521311000,14.49131103515625,0.2198352813720703,-0.049483880400657654,-0.019632957875728607
1729114190559245800,14.529245849609374,-0.6135759353637695,-0.2915073037147522,-0.3063669204711914
1729114190597180400,14.567180419921876,-0.11932373046875,-0.4267430305480957,0.08562216907739639
1729114190635115300,14.605115234375,0.3113861083984375,-0.4127929210662842,0.5338166952133179
1729114190673050000,14.643050048828124,-0.7046661376953125,-0.268673837184906,0.7133663892745972
1729114190710984700,14.680984619140625,0.5323667526245117,-0.42941510677337646,0.9200430512428284
1729114190748919600,14.71891943359375,-0.0062618255615234375,-0.4337889552116394,0.45156872272491455
1729114190786854100,14.756854248046874,0.14471054077148438,-0.3532213568687439,1.3361389636993408
1729114190824789000,14.7947890625,-0.3489847183227539,-0.38946568965911865,0.6187594532966614
1729114190862723800,14.832723876953125,-0.2109813690185547,-0.21289008855819702,1.784406304359436
1729114190900658400,14.870658447265624,-0.6405744552612305,-0.9218059778213501,0.10517337918281555
1729114190938593300,14.90859326171875,-0.11747169494628906,-1.1074273586273193,0.8774443864822388
1729114190976528000,14.94652783203125,0.9801921844482422,-1.0245451927185059,0.9760414958000183
1729114191014462700,14.984462646484374,-0.8484859466552734,-0.5199754238128662,0.6762887835502625
1729114191052397300,15.022397216796875,1.0684280395507812,-1.0361964702606201,0.5919089913368225
1729114191090332200,15.060332275390625,-0.6464328765869141,-0.5734275579452515,0.37232160568237305
1729114191128267000,15.09826708984375,0.8144807815551758,-0.7661598324775696,0.3652016222476959
1729114191166201600,15.13620166015625,-0.2693805694580078,-0.44433358311653137,0.5633978247642517
1729114191204136400,15.174136474609375,0.2893638610839844,-0.6750561594963074,0.6588447690010071
1729114191242071000,15.212071044921874,-0.09557437896728516,-0.57321697473526,0.12253439426422119
1729114191280006000,15.250005859375,-0.12389278411865234,-0.535573422908783,0.47165313363075256
1729114191317940500,15.2879404296875,0.16510295867919922,-0.6048395037651062,0.48947957158088684
1729114191355875300,15.325875244140626,-0.0697164535522461,-0.4567297697067261,0.6828914880752563
1729114191393810200,15.36381005859375,-0.30918216705322266,-0.2659728527069092,-0.20015135407447815
1729114191431744800,15.401744873046875,-0.35662174224853516,-0.4859181046485901,0.0643780380487442
1729114191469679600,15.4396796875,-0.9048252105712891,-0.11987602710723877,0.5523470044136047
1729114191507614200,15.4776142578125,0.27472877502441406,-0.20375315845012665,0.3060935139656067
1729114191545549000,15.515549072265625,0.12735748291015625,-0.30452266335487366,-0.03511942923069
1729114191583483600,15.553483642578126,0.02115345001220703,-0.39598792791366577,0.08101511001586914
1729114191621418500,15.59141845703125,-0.11274051666259766,-0.18511426448822021,-0.06289467215538025
1729114191659353300,15.629353271484375,-0.1314525604248047,-0.02530732750892639,0.4214771091938019
1729114191697288000,15.667287841796876,0.06291580200195312,-0.15059804916381836,-0.011214137077331543
1729114191735222800,15.705222900390625,-0.07750701904296875,-0.22965002059936523,-0.24068711698055267
1729114191773157400,15.743157470703125,0.11390495300292969,-0.1352531760931015,-0.07595232129096985
1729114191811092200,15.78109228515625,0.04318714141845703,-0.21564188599586487,-0.13919559121131897
1729114191849027000,15.819027099609375,0.1218109130859375,-0.172602578997612,-0.2555301785469055
1729114191886961700,15.856961669921875,-0.5369853973388672,-0.09074163436889648,-0.16933774948120117
1729114191924896500,15.894896484375,0.8496103286743164,-0.768694281578064,-0.1605691760778427
1729114191962831000,15.9328310546875,0.2594785690307617,-0.4270173907279968,0.003239557147026062
1729114192000766000,15.970765869140624,0.15000534057617188,-1.0470774173736572,-1.7889177799224854
1729114192038700500,16.008700439453126,-0.11252975463867188,-1.1642348766326904,-1.4901117086410522
1729114192076635400,16.046635498046875,0.15044593811035156,-1.5467543601989746,-1.3770654201507568
1729114192114570200,16.0845703125,-0.19614315032958984,-1.3348108530044556,-0.42011791467666626
1729114192152504800,16.1225048828125,0.06699848175048828,-0.8526861667633057,0.02170061320066452
1729114192190439700,16.160439697265623,-0.0039119720458984375,-0.6164571642875671,-0.4234837293624878
1729114192228374300,16.198374267578124,0.1498279571533203,-0.288266122341156,-0.635349452495575
1729114192266309000,16.23630908203125,-0.0033693313598632812,0.14405938982963562,-0.09591564536094666
1729114192304243700,16.27424365234375,0.032982826232910156,0.3457639515399933,-0.3316843509674072
1729114192342178600,16.312178466796876,-0.005187034606933594,0.4763508141040802,-0.5001100301742554
1729114192380113200,16.350113037109374,0.02383136749267578,0.4563198983669281,-0.23085634410381317
1729114192418048000,16.388048095703127,-0.01923084259033203,0.5780384540557861,-0.4067451059818268
1729114192455982800,16.42598291015625,-0.026041030883789062,0.6062881946563721,-0.2968398928642273
1729114192493917400,16.46391748046875,-0.007273674011230469,0.4798159897327423,-0.24108745157718658
1729114192531852300,16.501852294921875,0.005322456359863281,0.2873798608779907,-0.2602553367614746
1729114192569787000,16.539786865234376,-0.0022869110107421875,0.178505077958107,-0.18247511982917786
1729114192607721700,16.5777216796875,-0.020755767822265625,0.06472219526767731,-0.20000377297401428
1729114192645656300,16.61565625,-0.0009241104125976562,-0.011605881154537201,-0.1768135130405426
1729114192683591200,16.653591064453124,0.0013113021850585938,-0.027517758309841156,-0.16631822288036346
1729114192721526000,16.691526123046874,-0.0013446807861328125,0.010714840143918991,-0.13538521528244019
1729114192759460600,16.729460693359375,-0.006352424621582031,0.08666913956403732,-0.12791424989700317
1729114192797395500,16.7673955078125,-0.0036573410034179688,0.10993000864982605,-0.10514915734529495
1729114192835330000,16.805330078125,0.0012598037719726562,0.11972213536500931,-0.10965224355459213
1729114192873265000,16.843264892578127,-0.005660057067871094,0.11272096633911133,-0.07181547582149506
1729114192911199500,16.881199462890624,-0.00278472900390625,0.09453978389501572,-0.06308111548423767
1729114192949134300,16.91913427734375,-0.016678810119628906,0.03923395276069641,-0.06898842751979828
1729114192987069200,16.957069091796875,-0.00043010711669921875,0.026599546894431114,-0.06822808086872101
1729114193025003800,16.995003662109376,0.006777763366699219,0.023893607780337334,-0.061394914984703064
1729114193062938600,17.032938720703125,0.0044116973876953125,0.027531007304787636,-0.05515733361244202
1729114193100873200,17.070873291015626,-0.004727363586425781,0.06017491966485977,-0.046635836362838745
1729114193138808000,17.10880810546875,-0.0069789886474609375,0.04944881796836853,-0.03484882414340973
1729114193176742700,17.14674267578125,-0.011246681213378906,0.02493109181523323,-0.04244765639305115
1729114193214677500,17.184677490234375,0.0032854080200195312,0.013364363461732864,-0.03387664258480072
1729114193252612400,17.2226123046875,-0.006991386413574219,0.020780488848686218,-0.01631428301334381
1729114193290547000,17.260546875,-0.015529632568359375,0.02325206622481346,-0.011194393038749695
1729114193328481800,17.298481689453126,0.0049896240234375,0.02341938391327858,-0.012886106967926025
1729114193366416400,17.33641650390625,-0.00597381591796875,0.023570694029331207,-0.02007061243057251
1729114193404351200,17.374351318359373,-0.0015592575073242188,0.0102667436003685,-0.03374685347080231
1729114193442286000,17.4122861328125,0.0082855224609375,-0.0070075951516628265,-0.02701835334300995
1729114193480220700,17.450220703125,-0.0035371780395507812,0.006105069071054459,-0.010692790150642395
1729114193518155500,17.488155517578125,-0.010690689086914062,0.005614232271909714,-0.016230031847953796
1729114193556090000,17.526090087890626,0.0017709732055664062,0.0006157718598842621,-0.005215197801589966
1729114193594025000,17.56402490234375,-0.0031900405883789062,0.011925473809242249,-0.017898306250572205
1729114193631959600,17.60195947265625,0.02014446258544922,0.003894805908203125,0.004224106669425964
1729114193669894400,17.639894287109374,-0.015694618225097656,0.005273580551147461,-0.011969566345214844
1729114193707829200,17.677829345703124,0.0037164688110351562,0.007261514663696289,0.0033411383628845215
1729114193745763800,17.715763916015625,-0.0056018829345703125,0.00854957103729248,-0.005344480276107788
1729114193783698700,17.75369873046875,-0.03164100646972656,0.23057696223258972,-0.029421284794807434
1729114193821633300,17.79163330078125,-0.02436065673828125,0.5118869543075562,-0.014220058917999268
1729114193859568000,17.829568115234373,0.028540611267089844,0.7582284212112427,0.1050313264131546
1729114193897502700,17.867502685546874,0.005761146545410156,1.0714259147644043,0.06667407602071762
1729114193935437600,17.9054375,0.00543212890625,1.3769066333770752,0.09221707284450531
1729114193973372200,17.9433720703125,0.2971935272216797,1.2301634550094604,-0.019774392247200012
1729114194011307000,17.98130712890625,-0.24423694610595703,1.5108723640441895,0.10542578995227814
1729114194049241900,18.019241943359376,1.0913763046264648,1.2729079723358154,0.12346402555704117
1729114194087176400,18.057176513671877,-0.18877696990966797,1.2766799926757812,-0.39743489027023315
1729114194125111300,18.095111328125,0.39539623260498047,1.5121735334396362,-0.0328146368265152
1729114194163046000,18.1330458984375,-1.3033409118652344,1.62181556224823,0.07844261825084686
1729114194200980700,18.170980712890625,0.36919212341308594,1.5672719478607178,0.1267261803150177
1729114194238915300,18.208915283203126,0.5673942565917969,1.198211669921875,-0.11310683190822601
1729114194276850200,18.24685009765625,0.5435800552368164,1.2247216701507568,0.014769002795219421
1729114194314785000,18.284784912109377,1.6382951736450195,0.12239998579025269,-0.6038731336593628
1729114194352719600,18.3227197265625,0.5863304138183594,0.788874089717865,-0.2506997287273407
1729114194390654500,18.360654541015624,0.8351688385009766,0.013055801391601562,0.22028623521327972
1729114194428589000,18.398589111328125,-0.7537717819213867,0.5986887812614441,0.02190154790878296
1729114194466524000,18.43652392578125,0.9596767425537109,0.1490282416343689,-0.13792769610881805
1729114194504458500,18.47445849609375,-1.5729379653930664,0.07533329725265503,-0.6039151549339294
1729114194542393300,18.512393310546877,-2.3684635162353516,-0.06952053308486938,-0.13709889352321625
1729114194580328200,18.550328125,0.5031919479370117,-0.4678773581981659,0.2318166047334671
1729114194618262800,18.5882626953125,-0.4301490783691406,0.2826438546180725,-0.6459462642669678
1729114194656197600,18.62619775390625,-0.6594915390014648,0.31025898456573486,0.10296199470758438
1729114194694132200,18.66413232421875,2.6177444458007812,-1.2902193069458008,0.20429305732250214
1729114194732067000,18.702067138671875,-0.0020112991333007812,-0.7438216209411621,-0.4974443018436432
1729114194770001700,18.740001708984376,1.3671293258666992,-0.4530733823776245,-0.5285987257957458
1729114194807936500,18.7779365234375,-2.069413185119629,-0.9627496004104614,-0.40207862854003906
1729114194845871000,18.81587109375,0.5318012237548828,-1.2643966674804688,-0.039670661091804504
1729114194883806000,18.853805908203125,-1.2686948776245117,-0.1804370880126953,0.024464905261993408
1729114194921740800,18.89174072265625,-0.31371307373046875,0.361480712890625,0.1275910884141922
1729114194959675400,18.92967529296875,1.4856595993041992,-0.8471296429634094,-0.17428626120090485
1729114194997610200,18.9676103515625,3.5168094635009766,-0.32591354846954346,0.005427002906799316
1729114195035544800,19.005544921875,-0.10070419311523438,0.6840298175811768,-0.06067162752151489
1729114195073479700,19.043479736328123,0.8211698532104492,-0.06221035122871399,0.015100255608558655
1729114195111414300,19.081414306640625,0.3623085021972656,-0.6845475435256958,-0.22710980474948883
1729114195149349000,19.11934912109375,-2.4324092864990234,-0.8073559999465942,-0.32331669330596924
1729114195187284000,19.157283935546875,0.36448097229003906,-0.22620302438735962,0.058910295367240906
1729114195225218600,19.195218505859376,-2.1190271377563477,-0.7273356318473816,0.1872616410255432
1729114195263153400,19.2331533203125,-0.006243705749511719,-0.641878604888916,-0.3585889935493469
1729114195301088000,19.271087890625,-2.858095169067383,-0.8802136182785034,-0.9617604613304138
1729114195339022800,19.30902294921875,0.2915630340576172,0.13538625836372375,0.02239416539669037
1729114195376957700,19.346957763671874,0.5943708419799805,0.5792121887207031,0.31023791432380676
1729114195414892300,19.384892333984375,-0.7660369873046875,-0.39993369579315186,0.09687016904354095
1729114195452827100,19.4228271484375,1.6180028915405273,0.3522433042526245,-0.05694732069969177
1729114195490761700,19.46076171875,-1.4202041625976562,-0.6271669864654541,-0.5950987339019775
1729114195528696600,19.498696533203123,0.9317007064819336,-0.9440536499023438,-0.41719651222229004
1729114195566631200,19.536631103515624,0.531001091003418,0.004629284143447876,0.11286985874176025
1729114195604566000,19.57456591796875,-0.12727737426757812,-0.22592812776565552,0.1957833468914032
1729114195642500900,19.6125009765625,3.2444353103637695,-0.1471683382987976,0.19525986909866333
1729114195680435500,19.650435546875,-1.8651056289672852,-0.3081226348876953,-0.3892534673213959
1729114195718370300,19.688370361328126,1.7972393035888672,-0.10643720626831055,-0.5194156169891357
1729114195756305000,19.726304931640627,-1.0779914855957031,0.6490353345870972,-0.1665637493133545
1729114195794239700,19.76423974609375,1.4647464752197266,-1.3453254699707031,0.5472111701965332
1729114195832174300,19.80217431640625,-1.990300178527832,-0.7300448417663574,-0.3812345266342163
1729114195870109200,19.840109130859375,-2.317206859588623,0.5786267518997192,-0.6638806462287903
1729114195908043800,19.878043701171876,2.8612117767333984,-0.6840246915817261,-0.26817387342453003
1729114195945978600,19.915978515625,-0.2065563201904297,-0.7534292936325073,0.3496609926223755
1729114195983913500,19.95391357421875,-1.0927038192749023,-0.28078293800354004,-1.0238929986953735
1729114196021848000,19.99184814453125,2.4391613006591797,-0.2522411048412323,-0.14138613641262054
1729114196059783000,20.029782958984374,0.4946603775024414,0.19077903032302856,0.1993245780467987
1729114196097717500,20.067717529296875,1.590855598449707,-0.4690854251384735,0.022040680050849915
1729114196135652400,20.10565234375,0.4706897735595703,-0.502249002456665,-0.017315402626991272
1729114196173587000,20.1435869140625,-0.2695465087890625,-0.5865194797515869,-0.07679305970668793
1729114196211521800,20.181521728515627,-1.0882701873779297,-1.5593655109405518,-0.47732263803482056
1729114196249456600,20.21945654296875,0.5286312103271484,-0.44605159759521484,-0.08872458338737488
1729114196287391200,20.25739111328125,-0.03473186492919922,0.11733698844909668,-0.1430332511663437
1729114196325326000,20.295326171875,-2.2575149536132812,-0.9483388662338257,0.16362690925598145
1729114196363260700,20.3332607421875,4.516242027282715,-0.5261296033859253,0.6551278829574585
1729114196401195500,20.371195556640625,-1.4990711212158203,-0.3029305636882782,0.11953137069940567
1729114196439130000,20.409130126953126,-0.32603931427001953,-0.20859511196613312,-0.4723399579524994
1729114196477065000,20.44706494140625,0.5271129608154297,0.17920035123825073,-0.2178010791540146
1729114196514999800,20.484999755859373,1.434575080871582,-0.7095098495483398,0.4392625391483307
1729114196552934400,20.522934326171875,0.04127025604248047,-0.05175568163394928,0.21051335334777832
1729114196590869200,20.560869140625,-5.577139377593994,-0.3936467170715332,-0.00183771550655365
1729114196628803800,20.598803955078125,-0.5920619964599609,-1.208777904510498,0.6154314279556274
1729114196666738700,20.63673876953125,-1.7814979553222656,-0.7405855655670166,0.6770420074462891
1729114196704673300,20.67467333984375,0.1011819839477539,0.19469517469406128,1.1572726964950562
1729114196742608100,20.712608154296873,4.633821487426758,-0.7852647304534912,0.1737302541732788
1729114196780542700,20.750542724609375,-1.4183416366577148,-0.2711547613143921,-0.23035484552383423
1729114196818477600,20.7884775390625,1.1152009963989258,-0.17545844614505768,0.2277223765850067
1729114196856412400,20.826412353515625,0.21274375915527344,-1.104130506515503,0.433501660823822
1729114196894347000,20.864346923828126,-0.47394561767578125,0.14579680562019348,0.30820995569229126
1729114196932281900,20.90228173828125,-0.21521759033203125,0.3811759352684021,0.24768269062042236
1729114196970216400,20.940216552734373,-0.0048770904541015625,-0.8828436732292175,0.36653459072113037
1729114197008151300,20.9781513671875,0.9866342544555664,0.18948093056678772,-0.6248822212219238
1729114197046086000,21.0160859375,1.5614147186279297,-0.5281707048416138,0.14207330346107483
1729114197084020700,21.054020751953125,1.1960554122924805,-0.6283490657806396,0.3801459074020386
1729114197121955600,21.09195556640625,3.0460739135742188,-0.20435020327568054,0.29749172925949097
1729114197159890200,21.12989013671875,-0.7932119369506836,0.06851332634687424,-0.31972312927246094
1729114197197825000,21.167824951171873,-1.3393115997314453,-0.7373121976852417,0.09027053415775299
1729114197235759600,21.205759521484374,-3.058412551879883,-1.4293084144592285,0.4181973934173584
1729114197273694500,21.243694580078124,-0.3520345687866211,-0.09668489545583725,0.5778864026069641
1729114197311629300,21.28162939453125,-2.16763973236084,0.1765352487564087,-1.3481446504592896
1729114197349564000,21.31956396484375,4.1385908126831055,-0.503736138343811,0.6618214845657349
1729114197387498800,21.357498779296876,1.2913141250610352,-0.18894314765930176,0.028386399149894714
1729114197425433300,21.395433349609377,-0.423187255859375,0.5365681052207947,0.13595296442508698
1729114197463368200,21.4333681640625,0.5811624526977539,-1.264638900756836,0.232927143573761
1729114197501302800,21.471302734375,-0.25067615509033203,-0.3518162965774536,-0.22717703878879547
1729114197539237600,21.509237548828125,-5.090432643890381,0.6062464714050293,-0.2418082058429718
1729114197577172200,21.547172119140626,0.6390161514282227,-0.3993367552757263,0.5648748874664307
1729114197615107000,21.585107177734375,3.2725133895874023,-0.7123566269874573,-0.06936389207839966
1729114197653041700,21.623041748046877,-3.342026710510254,0.09965328127145767,-0.514541745185852
1729114197690976500,21.6609765625,0.7702856063842773,-0.6878269910812378,0.33927151560783386
1729114197728911400,21.698911376953124,-0.48252201080322266,-0.43378105759620667,0.1647547334432602
1729114197766846000,21.736845947265625,2.4111709594726562,-0.7773910760879517,0.07459159195423126
1729114197804780800,21.77478076171875,-3.776289939880371,0.1759667992591858,0.2737419009208679
1729114197842715400,21.81271533203125,-0.9922857284545898,-0.4656658470630646,0.028496190905570984
1729114197880650200,21.850650146484377,1.1469535827636719,0.3299364149570465,0.24555307626724243
1729114197918585000,21.888585205078126,-2.5502257347106934,0.724628210067749,0.338286429643631
1729114197956519700,21.926519775390624,2.140599250793457,-0.12400171160697937,0.6841491460800171
1729114197994454500,21.96445458984375,2.6625261306762695,-0.48189103603363037,0.3060949444770813
1729114198032389000,22.00238916015625,0.3582277297973633,0.16159486770629883,0.19989356398582458
1729114198070324000,22.040323974609375,-3.308528423309326,-1.2059129476547241,-0.5413315296173096
1729114198108258600,22.078258544921876,2.6997814178466797,-2.351726531982422,-0.6378911137580872
1729114198146193400,22.116193359375,-1.6369647979736328,-1.5687671899795532,0.6423131227493286
1729114198184128300,22.154128173828123,0.7771635055541992,-2.3505163192749023,0.5917368531227112
1729114198222062800,22.192062744140625,-1.4772844314575195,-1.6825816631317139,0.05847339332103729
1729114198259997700,22.229997802734374,-1.845026969909668,-2.154724597930908,-0.5187610387802124
1729114198297932300,22.267932373046875,1.9050397872924805,-2.3074746131896973,0.22937729954719543
1729114198335867100,22.3058671875,-1.7823638916015625,-1.82936429977417,0.38824722170829773
1729114198373801700,22.3438017578125,0.42673587799072266,-1.9313589334487915,0.3797311782836914
1729114198411736600,22.381736572265623,-2.7352728843688965,-1.8537611961364746,-0.3003008961677551
1729114198449671200,22.419671142578125,1.5062189102172852,-2.5510756969451904,-0.0327252596616745
1729114198487606000,22.45760595703125,-0.523320198059082,-1.6308424472808838,0.12633422017097473
1729114198525540900,22.495540771484375,0.5301198959350586,-1.962207555770874,-0.11015889048576355
1729114198563475500,22.533475341796876,-0.2123861312866211,-1.6021709442138672,-0.15650033950805664
1729114198601410300,22.571410400390626,0.13231945037841797,-1.8208844661712646,0.07985131442546844
1729114198639345000,22.609344970703123,0.00047779083251953125,-1.812112808227539,-0.024213895201683044
1729114198677279700,22.64727978515625,0.056359291076660156,-1.3297250270843506,-0.11933718621730804
1729114198715214300,22.68521435546875,-0.052109718322753906,-0.7272300124168396,0.2066434919834137
1729114198753149200,22.723149169921875,-0.014530181884765625,-0.4442600905895233,-0.31606346368789673
1729114198791084000,22.761083984375,-0.0352935791015625,0.028310656547546387,0.17024937272071838
1729114198829018600,22.7990185546875,0.023926734924316406,0.3777552843093872,-0.06407959759235382
1729114198866953500,22.836953369140623,-0.016162872314453125,0.5747991800308228,-0.06921696662902832
1729114198904888000,22.87488818359375,-0.011431694030761719,0.6718351244926453,0.051951661705970764
1729114198942823000,22.912822998046874,-0.011027336120605469,0.6258381009101868,-0.08074432611465454
1729114198980757500,22.950757568359375,0.010496139526367188,0.5047335624694824,0.029743462800979614
1729114199018692400,22.9886923828125,0.01201629638671875,0.4346892237663269,-0.06273168325424194
1729114199056627200,23.026627197265626,-0.01090240478515625,0.420587420463562,-0.05659833550453186
1729114199094561800,23.064561767578127,0.008385658264160156,0.37273404002189636,0.02579021453857422
1729114199132496600,23.10249658203125,-0.01450347900390625,0.2791585326194763,-0.024126648902893066
1729114199170431200,23.14043115234375,0.013582229614257812,0.22500768303871155,-0.014075085520744324
1729114199208366000,23.178365966796875,-0.009492874145507812,0.14562301337718964,-0.026896312832832336
1729114199246300700,23.21630078125,-0.0088348388671875,0.09902439266443253,-0.0107593834400177
1729114199284235500,23.254235595703125,0.018883705139160156,0.057323604822158813,-0.014042451977729797
1729114199322170000,23.292170166015627,-0.01643657684326172,0.020240090787410736,-0.010206282138824463
1729114199360105000,23.33010498046875,0.017004013061523438,0.006992518901824951,-0.0046491920948028564
1729114199398039800,23.368039794921874,-0.013467788696289062,-0.002522200345993042,0.00937516987323761
1729114199435974400,23.405974365234375,0.02228069305419922,0.024448223412036896,-0.020298540592193604
1729114199473909200,23.4439091796875,-0.0055027008056640625,0.07161758840084076,-0.0005293786525726318
1729114199511843800,23.48184375,-0.0072917938232421875,0.09142959117889404,-0.002386927604675293
1729114199549778700,23.51977880859375,0.008697509765625,0.098307766020298,-0.0015368908643722534
1729114199587713300,23.55771337890625,-0.02288818359375,0.0988936573266983,-0.0032885372638702393
1729114199625648000,23.595648193359374,0.011616706848144531,0.09100006520748138,0.013386651873588562
1729114199663583000,23.6335830078125,-0.02103710174560547,0.057473741471767426,-0.005326703190803528
1729114199701517600,23.671517578125,0.007870674133300781,0.04288950562477112,-0.011584699153900146
1729114199739452400,23.709452392578125,0.0026292800903320312,0.023338526487350464,0.00706876814365387
1729114199777387000,23.747386962890626,0.011392593383789062,0.010162010788917542,0.002382621169090271
1729114199815321900,23.78532177734375,-0.006542205810546875,0.017631903290748596,-0.006827205419540405
1729114199853256700,23.823256591796873,0.0040950775146484375,0.017531223595142365,0.009537220001220703
1729114199891191300,23.86119140625,-0.00952911376953125,0.0227024108171463,-0.008658677339553833
1729114199929126100,23.899126220703124,0.010227203369140625,0.018300607800483704,0.05435320734977722
1729114199967060700,23.937060791015625,-0.008325576782226562,0.02383611351251602,0.03376680612564087
1729114200004995600,23.97499560546875,0.01255035400390625,-0.01001892238855362,0.019447878003120422
1729114200042930200,24.01293017578125,-0.06214618682861328,-0.006609499454498291,0.14334462583065033
1729114200080865000,24.050864990234373,-0.05842399597167969,-0.1138053685426712,-0.20987284183502197
1729114200118799600,24.088799560546875,0.006298065185546875,-0.0654771625995636,0.04375527799129486
1729114200156734500,24.126734375,-0.008915901184082031,0.12303385138511658,0.490539014339447
1729114200194669300,24.16466943359375,0.03264045715332031,0.16135521233081818,0.5934659242630005
1729114200232604000,24.20260400390625,0.03476428985595703,0.24882391095161438,0.8259262442588806
1729114200270538800,24.240538818359376,-0.03293609619140625,0.16477768123149872,0.6716266870498657
1729114200308473300,24.278473388671873,0.027129173278808594,0.03784732520580292,0.8487623333930969
1729114200346408200,24.316408203125,0.03264427185058594,-0.11632069945335388,0.380606472492218
1729114200384342800,24.3543427734375,0.03917503356933594,-0.28734588623046875,-0.02986942231655121
1729114200422277600,24.392277587890625,-0.048458099365234375,-0.48806923627853394,-0.38626736402511597
1729114200460212500,24.43021240234375,0.02001667022705078,-0.3859637677669525,-0.24968501925468445
1729114200498147000,24.46814697265625,0.030975341796875,-0.5803813338279724,-0.9181215167045593
1729114200536082000,24.50608203125,-0.04833507537841797,-0.369031697511673,-0.37765955924987793
1729114200574016500,24.5440166015625,0.2712831497192383,-0.40588289499282837,-0.5188947916030884
1729114200611951400,24.581951416015624,-0.0038843154907226562,-0.506495475769043,-0.6960952281951904
1729114200649886000,24.619885986328125,-0.07345962524414062,-0.23844194412231445,-0.3661484122276306
1729114200687820800,24.65782080078125,0.32936668395996094,-0.21265515685081482,0.009750720113515854
1729114200725755600,24.695755615234376,-0.21966171264648438,-0.325113981962204,-0.28495633602142334
1729114200763690200,24.733690185546877,0.24228763580322266,-0.19215808808803558,0.1198018491268158
1729114200801625000,24.771625,0.03164863586425781,-0.2592775225639343,0.07897141575813293
1729114200839559700,24.8095595703125,0.19397926330566406,-0.29086846113204956,-0.14073848724365234
1729114200877494500,24.84749462890625,-0.025795936584472656,-0.25931432843208313,-0.3636125922203064
1729114200915429000,24.88542919921875,-0.015811920166015625,-0.13818758726119995,-0.11610165983438492
1729114200953364000,24.923364013671875,0.19270038604736328,-0.43285879492759705,-0.4442116320133209
1729114200991298600,24.961298583984377,-0.007481575012207031,-0.0649321973323822,0.17105098068714142
1729114201029233400,24.9992333984375,-0.07893753051757812,-0.19663451611995697,-0.06968685239553452
1729114201067168300,25.037168212890624,0.04953479766845703,-0.250063419342041,-0.40665194392204285
1729114201105102800,25.075102783203125,-0.11987018585205078,-0.10782679915428162,-0.1056191623210907
1729114201143037700,25.11303759765625,0.17616844177246094,-0.1937691867351532,-0.3255506753921509
1729114201180972300,25.15097216796875,-0.004933357238769531,-0.06414860486984253,-0.009752929210662842
1729114201218907100,25.1889072265625,-0.04956817626953125,-0.2652343213558197,-0.346250981092453
1729114201256841700,25.226841796875,-0.026224136352539062,-0.2484520673751831,-0.37982282042503357
1729114201294776600,25.264776611328124,-0.09689140319824219,-0.11459216475486755,0.17482635378837585
1729114201332711400,25.30271142578125,0.21675968170166016,-0.25307175517082214,-0.23580195009708405
1729114201370646000,25.34064599609375,0.008729934692382812,-0.11991581320762634,-0.256897896528244
1729114201408580900,25.378580810546875,0.13486385345458984,-0.09194481372833252,-0.22652631998062134
1729114201446515500,25.416515380859376,0.03523063659667969,-0.08206117153167725,-0.4906666874885559
1729114201484450300,25.4544501953125,-0.10806465148925781,0.041375309228897095,0.2357434183359146
1729114201522385000,25.492385009765623,-0.11293697357177734,-0.0455513596534729,0.11709415912628174
1729114201560319700,25.53031982421875,0.06264591217041016,-0.13358944654464722,-0.181333526968956
1729114201598254600,25.568254638671874,-0.19242000579833984,-0.04720589518547058,-0.1806546151638031
1729114201636189200,25.606189208984375,0.014134407043457031,-0.14812758564949036,-0.5281635522842407
1729114201674124000,25.6441240234375,-0.16649818420410156,0.017657309770584106,0.2073914259672165
1729114201712058600,25.68205859375,0.10857486724853516,-0.2448866367340088,-0.2511909306049347
1729114201749993500,25.719993408203123,0.024336814880371094,-0.13009890913963318,-0.2974662482738495
1729114201787928000,25.757927978515625,0.0057621002197265625,-0.12506979703903198,-0.21155431866645813
1729114201825863000,25.79586279296875,0.05731964111328125,-0.10681354999542236,0.10955303907394409
1729114201863797500,25.833797607421875,-0.07148170471191406,-0.09007561206817627,-0.113321453332901
1729114201901732400,25.871732421875,-0.059006690979003906,0.03951525688171387,-0.6959307789802551
1729114201939667200,25.909667236328126,0.11789798736572266,-0.10248929262161255,-1.6037511825561523
1729114201977601800,25.947601806640623,0.07140254974365234,-0.005158096551895142,-1.561785340309143
1729114202015536600,25.98553662109375,-0.1680288314819336,0.1261061429977417,-1.535447359085083
1729114202053471200,26.02347119140625,0.10773086547851562,0.08563274145126343,-0.5471253991127014
1729114202091406000,26.061406005859375,0.43240928649902344,0.3382507264614105,0.3304051458835602
1729114202129341000,26.0993408203125,-0.016137123107910156,0.3039896488189697,-0.09138578176498413
1729114202167275500,26.137275634765626,-0.057074546813964844,0.2560489773750305,-0.20481687784194946
1729114202205210400,26.17521044921875,0.036902427673339844,0.30616939067840576,0.05389368534088135
1729114202243145000,26.21314501953125,0.08658027648925781,0.27499914169311523,0.05739988386631012
1729114202281079800,26.251079833984374,-0.018032073974609375,0.23014643788337708,-0.03328077495098114
1729114202319014400,26.289014404296875,-0.001323699951171875,0.2582319378852844,0.02724003791809082
1729114202356949200,26.32694921875,-0.023787498474121094,0.21040792763233185,0.0204961895942688
1729114202394884000,26.364884033203126,-0.014051437377929688,0.19487890601158142,0.0012750625610351562
1729114202432818700,26.402818603515627,-0.006122589111328125,0.18655985593795776,0.01278446614742279
1729114202470753300,26.440753173828124,0.0006923675537109375,0.15968772768974304,0.006466656923294067
1729114202508688100,26.478688232421874,-0.005535125732421875,0.15127591788768768,0.010883376002311707
1729114202546623000,26.516623046875,0.013527870178222656,0.13725802302360535,0.009672746062278748
1729114202584557600,26.5545576171875,-0.012424468994140625,0.12296281009912491,0.004571110010147095
1729114202622492400,26.592492431640625,-0.0027933120727539062,0.10571928322315216,0.0015514791011810303
1729114202660427000,26.630427001953127,-0.0208282470703125,0.09447149932384491,0.001204267144203186
1729114202698361900,26.66836181640625,0.0035371780395507812,0.0867987722158432,0.012682899832725525
1729114202736296700,26.706296630859374,-0.0037517547607421875,0.06643830239772797,0.01603253185749054
1729114202774231300,26.744231201171875,0.0015592575073242188,0.07295960932970047,0.0038208961486816406
1729114202812166100,26.782166259765624,0.0036516189575195312,0.047552771866321564,0.008148342370986938
1729114202850100700,26.820100830078125,0.0018777847290039062,0.04208419471979141,-0.004072010517120361
1729114202888035600,26.85803564453125,0.001171112060546875,0.046250805258750916,0.009437903761863708
1729114202925970200,26.89597021484375,-0.005614280700683594,0.03715601563453674,-0.000770270824432373
1729114202963905000,26.933905029296874,0.008058547973632812,0.030927814543247223,-0.007506191730499268
1729114203001839900,26.97183984375,-0.0053730010986328125,0.020848676562309265,0.0065853893756866455
1729114203039774500,27.0097744140625,-0.0031538009643554688,0.03145284205675125,-0.014149665832519531
1729114203077709300,27.047709228515625,-0.01198577880859375,0.032394565641880035,0.001933082938194275
1729114203115644000,27.085643798828126,0.0013704299926757812,0.0270560160279274,0.006337493658065796
1729114203153578800,27.123578857421876,0.008261680603027344,0.022377490997314453,0.006224215030670166
1729114203191513300,27.161513427734373,-0.000919342041015625,0.031185142695903778,0.0007438808679580688
1729114203229448200,27.1994482421875,-0.009878158569335938,0.08779530227184296,-0.013212725520133972
1729114203267382800,27.2373828125,-0.012621879577636719,0.35523930191993713,0.05060102045536041
1729114203305317600,27.275317626953125,-0.06719398498535156,0.7589687705039978,0.023521333932876587
1729114203343252500,27.31325244140625,-0.00452423095703125,1.0351686477661133,0.09203691780567169
1729114203381187000,27.35118701171875,0.00925445556640625,1.3355084657669067,0.12216667830944061
1729114203419122000,27.389121826171873,0.016860008239746094,1.421807050704956,-0.07395513355731964
1729114203457056500,27.427056396484375,0.20556068420410156,1.4145277738571167,0.06276442110538483
1729114203494991400,27.464991455078124,-0.004513740539550781,1.6601945161819458,0.0207982137799263
1729114203532926000,27.502926025390625,-0.025785446166992188,1.6808249950408936,0.3421168327331543
1729114203570860800,27.54086083984375,0.19040393829345703,1.4071165323257446,-0.15014900267124176
1729114203608795600,27.578795654296876,0.2208843231201172,1.2833178043365479,0.17139151692390442
1729114203646730200,27.616730224609373,-0.40587902069091797,1.2714378833770752,-0.005576103925704956
1729114203684665000,27.6546650390625,1.6434192657470703,0.7402661442756653,-0.06380428373813629
1729114203722599700,27.692599609375,-0.39379215240478516,0.8462563157081604,-0.32020270824432373
1729114203760534500,27.730534423828125,0.7446374893188477,0.4091171622276306,-0.07115429639816284
1729114203798469000,27.76846923828125,1.485849380493164,0.5159143209457397,0.3427162170410156
1729114203836404000,27.806404052734376,-2.37860107421875,0.4596290588378906,0.1602533459663391
1729114203874338600,27.844338623046873,0.17329120635986328,-0.6872408390045166,-0.8635832071304321
1729114203912273400,27.8822734375,-2.955296516418457,0.7168415188789368,-0.2778787612915039
1729114203950208300,27.920208251953124,0.17510986328125,0.30662572383880615,-0.375028520822525
1729114203988142800,27.958142822265625,-1.8902835845947266,0.17493438720703125,0.2187579721212387
1729114204026077700,27.99607763671875,4.263740539550781,-0.1691942811012268,0.2913469076156616
1729114204064012300,28.03401220703125,-1.4167156219482422,-0.10105085372924805,-0.23646967113018036
1729114204101947100,28.071947021484377,0.2517719268798828,-0.8416656255722046,0.29656165838241577
1729114204139881700,28.1098818359375,-4.826653003692627,-0.6970292329788208,-0.2812564969062805
1729114204177816600,28.147816650390624,1.237325668334961,-0.8902921080589294,0.2673824429512024
1729114204215751400,28.18575146484375,1.052231788635254,-0.6505023837089539,0.3275427520275116
1729114204253686000,28.22368603515625,1.7467308044433594,-0.4146730303764343,0.31266313791275024
1729114204291620900,28.261620849609375,0.9732608795166016,-1.1630363464355469,-0.5331850647926331
1729114204329555500,28.299555419921877,2.0011415481567383,-1.8038614988327026,0.6593420505523682
1729114204367490300,28.337490234375,-2.943099021911621,-0.7599324584007263,-0.5998058915138245
1729114204405425000,28.3754248046875,-0.9971275329589844,-0.941562831401825,-0.013603150844573975
1729114204443359700,28.41335986328125,-1.0587682723999023,-0.39062175154685974,-0.05109943449497223
1729114204481294300,28.45129443359375,-1.1430587768554688,0.3921395540237427,0.5892429351806641
1729114204519229200,28.489229248046875,0.1115713119506836,-0.594848096370697,-0.3952113687992096
1729114204557164000,28.5271640625,0.5850515365600586,-0.09542548656463623,-0.08005345612764359
1729114204595098600,28.5650986328125,-0.10742473602294922,-0.6506678462028503,0.3695937693119049
1729114204633033500,28.603033447265624,-3.241410255432129,-0.7243305444717407,-0.10222573578357697
1729114204670968000,28.640968017578125,-0.8048238754272461,0.4267544746398926,0.6622494459152222
1729114204708903000,28.67890283203125,-1.6570262908935547,-0.7160950899124146,-0.2218254655599594
1729114204746837500,28.71683740234375,-2.62532377243042,-0.033675551414489746,-0.1443052440881729
1729114204784772400,28.7547724609375,0.32779407501220703,-0.185827374458313,0.6889111399650574
1729114204822707200,28.792707275390626,2.095170021057129,-1.2445049285888672,1.1213696002960205
1729114204860641800,28.830641845703123,-1.4000110626220703,-1.038682460784912,-0.2516692280769348
1729114204898576600,28.86857666015625,1.5664434432983398,-0.32491663098335266,0.2950698733329773
1729114204936511200,28.90651123046875,-4.931966781616211,0.29207509756088257,-0.5472092628479004
1729114204974446000,28.944446044921875,-0.09083938598632812,-1.1765353679656982,0.4727645516395569
1729114205012380700,28.982380615234376,2.317462921142578,-0.810093879699707,0.13361230492591858
1729114205050315500,29.0203154296875,-1.715266227722168,-0.21527671813964844,-0.5228535532951355
1729114205088250000,29.05825,2.2923765182495117,-0.12048232555389404,0.3048238158226013
1729114205126185000,29.09618505859375,1.5956010818481445,-0.6556599736213684,0.30006837844848633
1729114205164119800,29.134119873046874,0.037598609924316406,-0.9951958656311035,0.1215258240699768
1729114205202054400,29.172054443359375,-0.27743053436279297,-1.2176272869110107,0.5486538410186768
1729114205239989200,29.2099892578125,-0.31722354888916016,-0.5770401358604431,-0.5655139684677124
1729114205277923800,29.247923828125,-1.5896835327148438,-0.27211835980415344,-0.19522608816623688
1729114205315858700,29.285858642578123,0.3996248245239258,-0.09246820211410522,0.22610819339752197
1729114205353793300,29.323793212890624,0.10337162017822266,-0.07811853289604187,-0.03290429711341858
1729114205391728000,29.36172802734375,2.3377609252929688,-0.9572064876556396,0.06864117085933685
1729114205429662700,29.399662841796875,-3.3857431411743164,-0.5188766717910767,0.42746785283088684
1729114205467597600,29.43759765625,1.6494407653808594,-0.9172000885009766,0.3844250440597534
1729114205505532400,29.475532470703126,0.04074573516845703,-0.020792484283447266,-0.01543685793876648
1729114205543467000,29.513467041015623,-2.2551050186157227,-0.13995686173439026,-0.5261417627334595
1729114205581401900,29.55140185546875,1.4498176574707031,-0.8641247749328613,0.22958891093730927
1729114205619336400,29.58933642578125,0.29868602752685547,-0.7005001306533813,0.4270859658718109
1729114205657271300,29.627271240234375,-0.9633626937866211,-0.8473358154296875,-0.6748354434967041
1729114205695206000,29.665205810546876,-0.5971364974975586,0.3602619469165802,-0.1860489547252655
1729114205733140700,29.703140625,1.2174873352050781,-0.34760159254074097,-0.34612488746643066
1729114205771075600,29.74107568359375,0.42699527740478516,-0.9415154457092285,0.5820435285568237
1729114205809010200,29.77901025390625,-1.013716697692871,-0.8534832000732422,0.002020925283432007
1729114205846945000,29.816945068359374,0.05539703369140625,-0.10403883457183838,0.13973592221736908
1729114205884879600,29.854879638671875,-0.9746837615966797,-0.4071832597255707,-0.018473774194717407
1729114205922814500,29.892814453125,2.1606273651123047,-1.0327156782150269,0.05028215050697327
1729114205960749300,29.930749267578125,-2.6007585525512695,-0.24216525256633759,-0.5302861928939819
1729114205998684000,29.968683837890627,1.035557746887207,0.5405974388122559,0.6722450256347656
1729114206036618500,30.006618408203124,-4.139780044555664,-0.19054514169692993,-0.34118562936782837
1729114206074553300,30.04455322265625,0.09647560119628906,-0.4401610791683197,0.5632021427154541
1729114206112488200,30.08248828125,2.0933942794799805,0.35166412591934204,0.21803760528564453
1729114206150422800,30.1204228515625,0.8763446807861328,0.9186636209487915,0.14033296704292297
1729114206188357600,30.158357666015625,-3.376704216003418,-0.8673350811004639,0.5755215883255005
1729114206226292200,30.196292236328127,2.597123146057129,-0.9431179165840149,0.6562962532043457
1729114206264227000,30.23422705078125,1.2998132705688477,-0.4712696671485901,0.0713835060596466
1729114206302161700,30.27216162109375,1.2378101348876953,0.3022094964981079,0.21071085333824158
1729114206340096500,30.310096435546875,-0.47046947479248047,-0.9730302095413208,-0.12440915405750275
1729114206378031400,30.34803125,0.19423198699951172,-0.5894500017166138,0.30667218565940857
1729114206415966000,30.385966064453125,1.3168134689331055,-0.5015689730644226,0.2889983355998993
1729114206453900800,30.42390087890625,-5.10806131362915,0.7032654285430908,-0.6168267726898193
1729114206491835400,30.46183544921875,0.5269250869750977,-0.8250048160552979,0.7091779708862305
1729114206529770200,30.499770263671873,0.9334287643432617,-0.4987877309322357,0.23327574133872986
1729114206567705000,30.537705078125,0.5999917984008789,-0.219004288315773,-0.23468132317066193
1729114206605639700,30.5756396484375,-2.763772964477539,0.3625014126300812,-0.7568926811218262
1729114206643574300,30.61357421875,2.499356269836426,0.1545477956533432,0.8418808579444885
1729114206681509000,30.651509033203126,2.693613052368164,-0.9088374376296997,-0.0798439234495163
1729114206719444000,30.68944384765625,-2.1264238357543945,-0.3345073163509369,-0.3501495122909546
1729114206757378600,30.727378662109373,-1.3952875137329102,-0.9834249019622803,-0.6192899346351624
1729114206795313400,30.7653134765625,2.871898651123047,0.4356546401977539,-0.1754538118839264
1729114206833248000,30.803248046875,-2.5681142807006836,0.3448229432106018,0.6972149610519409
1729114206871182800,30.841182861328125,-0.5413579940795898,-0.34219664335250854,-0.3648304343223572
1729114206909117700,30.87911767578125,-0.7840690612792969,-0.8121510744094849,-0.30301839113235474
1729114206947052300,30.91705224609375,1.955678939819336,-0.4525107145309448,1.1539359092712402
1729114206984987100,30.954987060546873,1.177943229675293,-0.7676628828048706,-0.1071154922246933
1729114207022921700,30.992921630859374,-1.345808982849121,0.26109778881073,-0.4255642890930176
1729114207060856600,31.030856689453124,2.3503904342651367,-1.5551472902297974,0.01628585159778595
1729114207098791200,31.068791259765625,1.6502447128295898,-0.712080717086792,0.26924100518226624
1729114207136726000,31.10672607421875,-0.20894813537597656,-0.2316160351037979,0.028679318726062775
1729114207174660900,31.144660888671876,-1.3156719207763672,0.5121923685073853,-0.5274757146835327
1729114207212595500,31.182595458984373,-0.043990135192871094,-0.2126653641462326,0.18852758407592773
1729114207250530300,31.2205302734375,0.7790155410766602,0.07041846215724945,0.2293197512626648
1729114207288465000,31.25846484375,-3.1368398666381836,-0.18498556315898895,-0.7623612880706787
1729114207326399700,31.296399658203125,0.9663152694702148,0.3092062473297119,-0.34323328733444214
1729114207364334300,31.334334228515626,-2.4081320762634277,-0.3009968400001526,-0.2337832748889923
1729114207402269200,31.372269287109376,-1.200408935546875,-0.07490456104278564,0.6397414207458496
1729114207440204000,31.4102041015625,2.8738842010498047,-0.4194181561470032,0.8052278757095337
1729114207478138600,31.448138671875,-1.4810333251953125,0.446769654750824,-0.4622688293457031
1729114207516073500,31.486073486328124,3.451615333557129,-1.4174970388412476,-0.1616770625114441
1729114207554008000,31.524008056640625,1.2014551162719727,-1.3464481830596924,-0.03324763476848602
1729114207591943000,31.56194287109375,-3.0408220291137695,0.1172589436173439,-0.489283949136734
1729114207629877500,31.59987744140625,1.2607078552246094,-0.5977396368980408,0.07666409015655518
1729114207667812400,31.637812255859377,0.8503494262695312,-0.9808089733123779,0.22712412476539612
1729114207705747000,31.675746826171874,-4.987003326416016,-0.4009586572647095,-0.4372551441192627
1729114207743681800,31.713681884765624,-0.011859893798828125,-0.41581347584724426,0.13082832098007202
1729114207781616600,31.75161669921875,1.4075202941894531,-0.4726545214653015,-0.04455241560935974
1729114207819551200,31.78955126953125,-1.1335229873657227,0.3387266993522644,0.2933865189552307
1729114207857486000,31.827486083984375,-0.15525245666503906,-0.1944919228553772,0.46783459186553955
1729114207895420700,31.865420654296877,-0.03707695007324219,-0.4988552927970886,-0.1052522361278534
1729114207933355500,31.90335546875,0.1711282730102539,-0.4404156506061554,-0.03906114399433136
1729114207971290000,31.9412900390625,-2.846437454223633,-0.44914981722831726,-0.13124416768550873
1729114208009225000,31.979224853515625,2.5256853103637695,-2.6369481086730957,0.02185550332069397
1729114208047159800,32.01715991210938,-0.6407632827758789,-1.900881052017212,-0.804253101348877
1729114208085094400,32.05509448242187,0.19675827026367188,-2.0108022689819336,0.4479517340660095
1729114208123029200,32.093029296875,0.02589893341064453,-2.2562735080718994,0.14885593950748444
1729114208160963800,32.1309638671875,1.073044776916504,-1.674748182296753,0.8612315058708191
1729114208198898700,32.16889868164063,-1.587021827697754,-1.4514577388763428,-1.171684980392456
1729114208236833300,32.20683325195313,0.5741424560546875,-2.5141491889953613,0.15964975953102112
1729114208274768100,32.24476806640625,0.34401893615722656,-2.477675437927246,0.6360881328582764
1729114208312703000,32.282702880859375,-1.113987922668457,-1.7399747371673584,0.15095913410186768
1729114208350637600,32.320637451171876,1.051732063293457,-2.1657235622406006,-0.06961140036582947
1729114208388572400,32.35857250976562,-0.6877841949462891,-1.8372794389724731,0.08431315422058105
1729114208426507000,32.39650708007812,0.38617420196533203,-2.0746231079101562,0.07907599955797195
1729114208464441900,32.43444189453125,-0.22696208953857422,-1.5584765672683716,-0.011403709650039673
1729114208502376700,32.47237670898438,0.3346977233886719,-1.943950891494751,-0.2298181802034378
1729114208540311300,32.51031127929687,-0.1598501205444336,-1.6539732217788696,0.10067261755466461
1729114208578246100,32.54824609375,0.16716384887695312,-1.1646679639816284,0.12434691190719604
1729114208616180700,32.5861806640625,-0.05575752258300781,-0.7460614442825317,-0.1351105272769928
1729114208654115600,32.62411547851563,0.051230430603027344,-0.37564030289649963,0.07454460114240646
1729114208692050200,32.66205029296875,-0.08301448822021484,-0.020606637001037598,0.1021203100681305
1729114208729985000,32.699985107421874,0.010348320007324219,0.30608952045440674,-0.05276605486869812
1729114208767919900,32.737919921875,-0.009026527404785156,0.5094932317733765,0.05033901333808899
1729114208805854500,32.7758544921875,0.0031099319458007812,0.5920577049255371,-0.0036105364561080933
1729114208843789300,32.81378930664062,-0.006388664245605469,0.6407462358474731,-0.02517452836036682
1729114208881724000,32.85172387695312,0.003353118896484375,0.5546576976776123,0.02760469913482666
1729114208919658800,32.88965869140625,-0.016206741333007812,0.41824862360954285,-0.0011689811944961548
1729114208957593300,32.92759326171875,0.014318466186523438,0.2904292345046997,-0.0032260268926620483
1729114208995528200,32.96552807617188,-0.009466171264648438,0.26944392919540405,0.0033647269010543823
1729114209033463000,33.003463134765624,-0.0059261322021484375,0.26687195897102356,0.0018325895071029663
1729114209071397600,33.041397705078126,0.0016260147094726562,0.22715836763381958,-0.000030875205993652344
1729114209109332500,33.07933251953125,-0.0004291534423828125,0.1848306506872177,0.0046889036893844604
1729114209147267000,33.11726708984375,-0.0005035400390625,0.16302374005317688,-0.004181817173957825
1729114209185202000,33.155201904296874,0.0025720596313476562,0.11704406887292862,-0.0030500441789627075
1729114209223136500,33.193136474609375,-0.015913963317871094,0.09738447517156601,-0.014223679900169373
1729114209261071400,33.2310712890625,0.0076694488525390625,0.0891534686088562,-0.006481856107711792
1729114209299006000,33.269005859375,-0.006468772888183594,0.07102255523204803,-0.0004585832357406616
1729114209336940800,33.30694091796875,0.007552146911621094,0.0615929514169693,-0.0008351355791091919
1729114209374875600,33.344875732421876,-0.0015439987182617188,0.04050630331039429,0.013201132416725159
1729114209412810200,33.38281030273438,0.005419731140136719,0.03199031203985214,-0.008202806115150452
1729114209450745000,33.4207451171875,0.0049800872802734375,0.025891102850437164,0.048503004014492035
1729114209488679700,33.4586796875,-0.007464408874511719,0.02313528209924698,-0.020655915141105652
1729114209526614500,33.496614501953125,-0.018324851989746094,0.015219733119010925,0.05765463411808014
1729114209564549000,33.53454907226563,-0.19810104370117188,0.1024705320596695,0.18940073251724243
1729114209602484000,33.57248388671875,-0.022624969482421875,-0.12611912190914154,-0.05328778922557831
1729114209640418800,33.610418701171874,-0.005428314208984375,0.032295599579811096,0.48092514276504517
1729114209678353400,33.648353515625,-0.20232772827148438,0.15776516497135162,0.5970433950424194
1729114209716288300,33.68628833007813,0.19874191284179688,0.16587525606155396,0.8897515535354614
1729114209754222800,33.72422290039062,-0.12674808502197266,0.07409223169088364,0.4068731665611267
1729114209792157700,33.76215771484375,0.009131431579589844,-0.04396878927946091,0.31829532980918884
1729114209830092300,33.80009228515625,0.08642578125,-0.06575445830821991,0.22590048611164093
1729114209868027100,33.83802709960938,-0.31647777557373047,-0.1714014708995819,-0.0913776308298111
1729114209905962000,33.8759619140625,0.06480979919433594,-0.2880024015903473,-0.23836667835712433
1729114209943896600,33.913896484375,0.2437276840209961,-0.2808852791786194,-0.1574465036392212
1729114209981831400,33.95183154296875,-0.15524864196777344,-0.2743845582008362,-0.5308705568313599
1729114210019766000,33.98976611328125,0.07411479949951172,-0.05760587006807327,-0.12447154521942139
1729114210057700900,34.02770092773437,0.06352901458740234,-0.3176731467247009,-0.2043684870004654
1729114210095635700,34.0656357421875,0.012864112854003906,-0.004016771912574768,0.03781711310148239
1729114210133570300,34.1035703125,-0.10003185272216797,-0.17928510904312134,-0.24166466295719147
1729114210171505200,34.14150512695313,0.1792459487915039,-0.07435429096221924,0.3094882071018219
1729114210209439700,34.17943969726562,-0.06420040130615234,-0.008131027221679688,0.17811769247055054
1729114210247374600,34.21737451171875,-0.05748462677001953,-0.11609753966331482,-0.3257226347923279
1729114210285309200,34.25530908203125,-0.12284088134765625,0.07071077823638916,0.009553857147693634
1729114210323244000,34.293244140625,0.13643741607666016,-0.17119677364826202,0.031383730471134186
1729114210361179000,34.33117895507812,-0.017221450805664062,-0.02934183180332184,0.18978655338287354
1729114210399113500,34.369113525390624,0.1547088623046875,-0.1538373976945877,0.03871525079011917
1729114210437048300,34.40704833984375,0.09891986846923828,-0.20420801639556885,-0.1773514598608017
1729114210474983000,34.44498291015625,-0.00299072265625,-0.13143512606620789,-0.20630264282226562
1729114210512917800,34.48291772460937,-0.0054798126220703125,-0.1811685860157013,-0.40668636560440063
1729114210550852400,34.52085229492187,0.05435943603515625,-0.14239180088043213,-0.215473473072052
1729114210588787200,34.558787109375,0.16567134857177734,-0.27898484468460083,-0.35415366291999817
1729114210626722000,34.59672216796875,0.025168418884277344,-0.1367042511701584,-0.17037233710289001
1729114210664656600,34.63465673828125,-0.030974388122558594,-0.14717760682106018,-0.3763216435909271
1729114210702591500,34.672591552734374,-0.1213979721069336,-0.09373921155929565,-0.08532367646694183
1729114210740526000,34.710526123046876,0.011544227600097656,0.002179250121116638,-0.053162358701229095
1729114210778461000,34.7484609375,-0.2065572738647461,-0.022537916898727417,-0.17098717391490936
1729114210816395800,34.78639575195312,-0.12035274505615234,0.01956818997859955,-0.22108197212219238
1729114210854330400,34.824330322265624,0.24473285675048828,-0.11791646480560303,-0.04896575212478638
1729114210892265200,34.86226513671875,0.3062925338745117,-0.23473641276359558,-0.21681112051010132
1729114210930199800,34.90019970703125,0.032271385192871094,-0.2741994857788086,-0.2882656157016754
1729114210968134700,34.938134765625,-0.2317676544189453,-0.004453152418136597,0.0713142454624176
1729114211006069200,34.9760693359375,-0.016588211059570312,-0.28491029143333435,-0.07503508031368256
1729114211044004000,35.014004150390626,0.009325981140136719,0.023308277130126953,0.14093419909477234
1729114211081939000,35.05193896484375,-0.06261444091796875,-0.19951796531677246,-0.46992844343185425
1729114211119873500,35.08987353515625,0.061278343200683594,-0.05693572759628296,0.13021528720855713
1729114211157808400,35.127808349609374,-0.015417098999023438,-0.14454594254493713,-0.27454668283462524
1729114211195743000,35.165742919921875,-0.10028266906738281,-0.1743474304676056,-0.5560206770896912
1729114211233677800,35.203677734375,-0.04458808898925781,0.024541795253753662,0.18366684019565582
1729114211271612700,35.24161279296875,-0.026905059814453125,-0.13292816281318665,-0.11227083206176758
1729114211309547300,35.27954736328125,-0.11945247650146484,0.02684420347213745,-0.033242784440517426
1729114211347482000,35.31748217773438,0.17698001861572266,-0.2639702260494232,-0.24086380004882812
1729114211385416700,35.35541674804688,0.041419029235839844,-0.002774655818939209,-0.2673538625240326
1729114211423351600,35.3933515625,0.10823631286621094,-0.19586989283561707,-0.28959330916404724
1729114211461286100,35.4312861328125,0.0500335693359375,-0.04801681637763977,-0.04770946502685547
1729114211499221000,35.469220947265626,-0.10905742645263672,-0.06801927089691162,-0.2707414925098419
1729114211537155800,35.50715576171875,-0.08121776580810547,-0.12042617797851562,-0.03763405233621597
1729114211575090400,35.54509033203125,-0.10268783569335938,-0.04039281606674194,0.018649786710739136
1729114211613025300,35.583025390625,0.0029354095458984375,-0.297078013420105,-0.46207088232040405
1729114211650960000,35.6209599609375,0.10972023010253906,-0.25196555256843567,-0.550573468208313
1729114211688894700,35.65889477539063,-0.21035289764404297,-0.06922990083694458,-1.8211827278137207
1729114211726829600,35.69682958984375,0.13585472106933594,-0.10181272029876709,-2.022761344909668
1729114211764764200,35.73476416015625,-0.10289764404296875,0.08824396133422852,-1.6935063600540161
1729114211802699000,35.772698974609376,-0.09733963012695312,0.45543166995048523,0.034191474318504333
1729114211840633600,35.81063354492188,-0.5808010101318359,0.35466083884239197,0.35758116841316223
1729114211878568400,35.848568359375,0.29867076873779297,0.19571733474731445,-0.3304753303527832
1729114211916503000,35.8865029296875,-0.13383197784423828,0.3145831823348999,-0.05612871050834656
1729114211954438000,35.92443798828125,0.1230010986328125,0.2742459774017334,-0.08031177520751953
1729114211992372700,35.96237280273437,-0.10526084899902344,0.31674712896347046,-0.08117222785949707
1729114212030307300,36.00030737304687,0.039076805114746094,0.2908132076263428,-0.0842871218919754
1729114212068242200,36.0382421875,-0.03849029541015625,0.2835475504398346,-0.045070797204971313
1729114212106176800,36.0761767578125,0.03037548065185547,0.2576882839202881,-0.08000193536281586
1729114212144111600,36.11411157226563,-0.017510414123535156,0.2067251056432724,-0.01656283438205719
1729114212182046200,36.15204614257812,0.0018482208251953125,0.1864238679409027,-0.08101169764995575
1729114212219981000,36.18998095703125,0.005284309387207031,0.16674834489822388,-0.021374300122261047
1729114212257916000,36.227916015625,-0.0014410018920898438,0.14589163661003113,-0.0522458553314209
1729114212295850500,36.2658505859375,-0.002040863037109375,0.12316400557756424,-0.029156669974327087
1729114212333785300,36.30378540039062,0.00031566619873046875,0.12257272005081177,-0.03918887674808502
1729114212371720000,36.341719970703124,0.004551887512207031,0.11239192634820938,-0.01775762438774109
1729114212409654800,36.37965478515625,0.002300262451171875,0.0941428616642952,-0.03040701150894165
1729114212447589400,36.41758935546875,0.009589195251464844,0.0890430361032486,-0.011808589100837708
1729114212485524200,36.45552416992187,0.001903533935546875,0.07959121465682983,-0.02077995240688324
1729114212523459000,36.493458984375,-0.000186920166015625,0.06249282509088516,-0.02545836567878723
1729114212561393700,36.5313935546875,-0.00029087066650390625,0.05968349426984787,-0.021739542484283447
1729114212599328500,36.56932861328125,-0.00013256072998046875,0.04913406819105148,-0.017414510250091553
1729114212637263400,36.607263427734374,-0.004885673522949219,0.05002883821725845,-0.0063143521547317505
1729114212675198000,36.645197998046875,-0.009123802185058594,0.04027319699525833,0.002080664038658142
1729114212713132800,36.6831328125,0.009705543518066406,0.03621932864189148,-0.005756452679634094
1729114212751067400,36.7210673828125,-0.00000858306884765625,0.03247764706611633,-0.007304683327674866
1729114212789002200,36.75900219726562,0.0071563720703125,0.028527237474918365,-0.005818650126457214
1729114212826936800,36.796936767578124,-0.017986297607421875,0.03719437122344971,0.0021878480911254883
1729114212864871700,36.83487158203125,0.0100860595703125,0.02018098533153534,-0.008509233593940735
1729114212902806500,36.872806640625,-0.01335906982421875,0.019930459558963776,-0.007767543196678162
1729114212940741000,36.9107412109375,-0.005131721496582031,0.01567700505256653,-0.002672627568244934
1729114212978676000,36.948676025390625,-0.0057048797607421875,0.022925913333892822,-0.012716978788375854
1729114213016610600,36.98661059570313,0.016509056091308594,0.031385861337184906,-0.007674857974052429
1729114213054545400,37.02454541015625,0.02186107635498047,0.2727242112159729,0.009111970663070679
1729114213092480000,37.06247998046875,0.024129867553710938,0.5979417562484741,-0.023092448711395264
1729114213130414800,37.100414794921875,-0.08197402954101562,1.002636194229126,0.011321932077407837
1729114213168349700,37.138349609375,-0.076263427734375,1.333871603012085,0.026005476713180542
1729114213206284300,37.1762841796875,-0.22144031524658203,1.6226935386657715,0.07977215200662613
1729114213244219100,37.21421923828125,0.1258983612060547,1.650148868560791,0.10889635980129242
1729114213282153700,37.25215380859375,-0.009303092956542969,1.5245980024337769,0.08176034688949585
1729114213320088600,37.29008862304688,0.1212930679321289,1.6918022632598877,-0.02751624584197998
1729114213358023400,37.3280234375,0.05517005920410156,1.5840504169464111,0.04948529601097107
1729114213395958000,37.3659580078125,0.22195816040039062,1.4316074848175049,-0.15564434230327606
1729114213433892900,37.403892822265625,0.1803112030029297,1.111841082572937,-0.11219079792499542
1729114213471827500,37.441827392578126,-0.9268865585327148,1.1151342391967773,-0.24172066152095795
1729114213509762300,37.47976220703125,-0.02286815643310547,0.895672619342804,-0.13389308750629425
1729114213547697200,37.517697265625,0.28288745880126953,0.7961914539337158,-0.12750288844108582
1729114213585631700,37.5556318359375,1.7541284561157227,0.680335521697998,-0.050493597984313965
1729114213623566600,37.59356665039063,-0.9705705642700195,1.0490041971206665,-0.14074881374835968
1729114213661501200,37.63150122070312,0.9193954467773438,1.0252100229263306,-0.11413601040840149
1729114213699436000,37.66943603515625,-2.7004551887512207,1.1410666704177856,0.4110988974571228
1729114213737370600,37.70737060546875,1.267470359802246,-0.901005208492279,-0.40628325939178467
1729114213775305500,37.74530541992188,-1.0930671691894531,0.26777803897857666,0.07768809795379639
1729114213813240300,37.783240234375,2.2598342895507812,-1.2504725456237793,0.3110198378562927
1729114213851175000,37.8211748046875,0.058597564697265625,-0.6251036524772644,-0.06343232095241547
1729114213889109800,37.85910986328125,-2.2985992431640625,-1.5166053771972656,-0.2637389302253723
1729114213927044400,37.89704443359375,2.2769641876220703,-1.4423751831054688,0.4215344488620758
1729114213964979200,37.93497924804687,0.5932807922363281,-1.0363425016403198,0.1055382639169693
1729114214002914000,37.9729140625,-1.014674186706543,-1.0049892663955688,-0.18401044607162476
1729114214040848600,38.0108486328125,-1.1793880462646484,-1.572166085243225,-0.40288299322128296
1729114214078783500,38.04878344726563,-1.2021760940551758,0.2693047523498535,0.08360229432582855
1729114214116718000,38.08671801757812,-0.9001245498657227,-0.3576532006263733,0.37263184785842896
1729114214154653000,38.12465283203125,0.4233064651489258,-1.4269275665283203,-0.18410448729991913
1729114214192587500,38.16258740234375,-1.4999189376831055,-1.364695429801941,-0.10651513934135437
1729114214230522400,38.2005224609375,0.9784708023071289,-0.458076536655426,0.38927584886550903
1729114214268457200,38.23845727539062,-0.5797824859619141,-0.631007969379425,-0.34306859970092773
1729114214306391800,38.276391845703124,0.6409502029418945,-0.6818462610244751,-0.5229395627975464
1729114214344326700,38.31432666015625,1.5052299499511719,-1.6015475988388062,-0.15508347749710083
1729114214382261200,38.35226123046875,-1.2003660202026367,-0.6656371355056763,0.1962754875421524
1729114214420196000,38.39019604492187,-1.3516435623168945,-0.48825401067733765,-0.2941778004169464
1729114214458130700,38.42813061523437,0.12861347198486328,-0.7500447034835815,-0.01565757393836975
1729114214496065500,38.4660654296875,-0.11605548858642578,-1.2216553688049316,-0.2546103596687317
1729114214534000400,38.50400048828125,0.7520256042480469,-0.8752233982086182,-0.41719725728034973
1729114214571935000,38.54193505859375,-0.4377708435058594,0.02370452880859375,0.4442458748817444
1729114214609869800,38.579869873046874,0.3271675109863281,-0.8317217826843262,-0.16178029775619507
1729114214647804700,38.6178046875,0.21477413177490234,-1.2999732494354248,-0.1756598949432373
1729114214685739300,38.6557392578125,-0.8460292816162109,-0.37571752071380615,0.5764950513839722
1729114214723674000,38.69367407226562,0.7597427368164062,-1.0889123678207397,-0.08722224831581116
1729114214761608700,38.731608642578124,0.2758903503417969,-0.8906342387199402,0.19267858564853668
1729114214799543600,38.76954345703125,-2.3899526596069336,-1.3538354635238647,-0.21563488245010376
1729114214837478100,38.80747802734375,-0.39035987854003906,-0.886430561542511,0.12776103615760803
1729114214875413000,38.8454130859375,-0.21387386322021484,-0.22979635000228882,-0.29251572489738464
1729114214913347800,38.883347900390625,1.9742240905761719,-1.1634142398834229,0.5112254619598389
1729114214951282400,38.921282470703126,-0.28823280334472656,-0.7363871335983276,-0.1002940833568573
1729114214989217300,38.95921728515625,-0.22321128845214844,-0.05623430013656616,0.04990038275718689
1729114215027152000,38.99715185546875,1.607278823852539,-0.6860555410385132,-0.096067875623703
1729114215065086700,39.035086669921874,1.8517045974731445,-1.0798259973526,0.2584933042526245
1729114215103021300,39.073021240234375,-0.792506217956543,-0.8377643823623657,-0.05967339873313904
1729114215140956200,39.1109560546875,-1.5967092514038086,-0.15917015075683594,-0.055713146924972534
1729114215178891000,39.14889111328125,0.026187896728515625,-0.24134564399719238,0.3066439628601074
1729114215216825600,39.18682568359375,0.7627153396606445,-0.5446228384971619,-0.01809781789779663
1729114215254760400,39.22476049804688,-0.06136512756347656,-0.5310367345809937,-0.2742735743522644
1729114215292695000,39.26269506835938,0.013833999633789062,-0.25930657982826233,-0.10740053653717041
1729114215330630000,39.3006298828125,-0.5294218063354492,-0.5566344261169434,0.7004668712615967
1729114215368564500,39.338564453125,0.6187162399291992,-0.6455913782119751,-0.005919039249420166
1729114215406499300,39.376499267578126,-1.4378547668457031,0.30305832624435425,-0.06005829572677612
1729114215444434200,39.41443408203125,-1.0680656433105469,-1.2512409687042236,-0.2556573450565338
1729114215482368800,39.45236865234375,-1.045572280883789,-0.6839224100112915,-0.013635367155075073
1729114215520303600,39.4903037109375,-1.9341936111450195,-0.222900390625,-0.6030707359313965
1729114215558238500,39.52823852539063,1.6656265258789062,-1.1469614505767822,0.006206989288330078
1729114215596173000,39.56617309570313,0.5046501159667969,-0.5350936055183411,-0.37738537788391113
1729114215634108000,39.60410791015625,1.30810546875,-0.01001960039138794,0.13600926101207733
1729114215672042500,39.64204248046875,0.14395427703857422,-0.516850471496582,0.3744273781776428
1729114215709977300,39.679977294921876,0.2835245132446289,-0.9669498205184937,-0.6331170797348022
1729114215747912000,39.71791186523438,2.3903074264526367,-1.0566211938858032,-0.3344564437866211
1729114215785846800,39.7558466796875,-0.9668560028076172,0.10207143425941467,-0.4686337411403656
1729114215823781600,39.79378173828125,-2.173858642578125,-0.5217627882957458,-0.4388126730918884
1729114215861716200,39.83171630859375,-0.10715103149414062,-1.4505715370178223,-0.08567529916763306
1729114215899651000,39.86965112304687,-0.6376466751098633,-0.563332200050354,0.07441142201423645
1729114215937585700,39.90758569335937,0.5525541305541992,0.04195389151573181,0.22535264492034912
1729114215975520500,39.9455205078125,-0.3016929626464844,-0.35466548800468445,-0.48226502537727356
1729114216013455000,39.983455078125,1.7695178985595703,-0.6789594888687134,-0.42478033900260925
1729114216051390000,40.02138989257813,-0.2907743453979492,-0.6601530313491821,-0.6370224952697754
1729114216089324800,40.05932470703125,0.42190074920654297,-0.23404434323310852,-0.20446942746639252
1729114216127259400,40.09725927734375,-1.0091705322265625,-0.9825287461280823,-0.2742609679698944
1729114216165194200,40.1351943359375,0.727020263671875,-0.44663265347480774,-0.5870773792266846
1729114216203128800,40.17312890625,-0.31987476348876953,-1.3532276153564453,-0.04159657657146454
1729114216241063700,40.21106372070312,-1.993535041809082,0.3625810146331787,-0.41346776485443115
1729114216278998500,40.24899853515625,-0.637969970703125,-1.3600841760635376,-0.326619952917099
1729114216316933000,40.28693310546875,3.968783378601074,-1.0651962757110596,0.4618125557899475
1729114216354868000,40.32486791992188,-2.099088668823242,0.307521790266037,-0.5798187851905823
1729114216392802600,40.36280249023437,0.7982101440429688,-0.9850793480873108,-0.15829774737358093
1729114216430737400,40.4007373046875,3.65427303314209,-0.789821982383728,0.2233242392539978
1729114216468672300,40.43867236328125,-2.366715431213379,0.10537609457969666,-0.30074626207351685
1729114216506606800,40.47660693359375,-2.0303468704223633,0.9488635063171387,-0.7756078243255615
1729114216544541700,40.514541748046874,0.7635622024536133,-1.2288153171539307,1.0619745254516602
1729114216582476300,40.552476318359375,0.7442684173583984,-0.42625486850738525,-0.06600622832775116
1729114216620411100,40.5904111328125,0.3176288604736328,0.4725714325904846,-0.29770004749298096
1729114216658345700,40.628345703125,0.4479341506958008,-0.32593828439712524,-0.1505056768655777
1729114216696280600,40.66628051757812,3.449665069580078,-0.308296263217926,-0.12979485094547272
1729114216734215400,40.70421533203125,-0.5795040130615234,-0.21962422132492065,-0.01028817892074585
1729114216772150000,40.74214990234375,-4.604154586791992,-0.2214384377002716,-0.47232234477996826
1729114216810084900,40.7800849609375,-0.83782958984375,-1.6944018602371216,-0.5615022778511047
1729114216848019500,40.81801953125,2.491694450378418,-1.1992852687835693,0.3462088108062744
1729114216885954300,40.855954345703125,-4.762709617614746,0.9263836145401001,-0.19667625427246094
1729114216923889200,40.89388916015625,1.9243192672729492,-0.6176214218139648,0.3741242289543152
1729114216961823700,40.93182373046875,4.018209457397461,-0.7020025253295898,-0.23909679055213928
1729114216999758600,40.96975854492187,-1.152618408203125,0.242388054728508,-0.2471892237663269
1729114217037693200,41.007693115234375,0.7680082321166992,-0.005412980914115906,-0.22942084074020386
1729114217075628000,41.0456279296875,1.6989221572875977,-0.5492910146713257,0.10865981876850128
1729114217113563000,41.08356298828125,0.042397499084472656,0.30447685718536377,-0.27130669355392456
1729114217151497500,41.12149755859375,0.39113616943359375,-0.17682385444641113,0.9014496803283691
1729114217189432300,41.159432373046876,0.08295345306396484,-0.4607553482055664,-0.005393028259277344
1729114217227367000,41.19736694335938,-1.3673429489135742,-0.28449007868766785,-0.23191583156585693
1729114217265301800,41.2353017578125,-1.9209909439086914,-0.6361914277076721,-0.3826254904270172
1729114217303236400,41.273236328125,2.6329164505004883,-0.44785046577453613,0.43712520599365234
1729114217341171200,41.311171142578125,2.2929134368896484,-0.29335689544677734,0.840584397315979
1729114217379106000,41.34910595703125,-0.8379659652709961,0.7718150615692139,-0.5445327162742615
1729114217417040600,41.38704052734375,-0.10915565490722656,-1.1528531312942505,0.424022376537323
1729114217454975500,41.4249755859375,2.1827516555786133,-0.2798205614089966,0.7791857719421387
1729114217492910000,41.46291015625,-0.9867763519287109,0.687323808670044,-0.2996352016925812
1729114217530845000,41.50084497070313,0.2516193389892578,0.6332801580429077,-0.2880580723285675
1729114217568779800,41.53877978515625,1.8438129425048828,-0.9662593603134155,-0.10709619522094727
1729114217606714400,41.57671435546875,-1.0367851257324219,-1.0308789014816284,0.1938394457101822
1729114217644649200,41.614649169921876,-1.9859638214111328,-1.457135796546936,-0.1304226815700531
1729114217682583800,41.65258374023438,-0.15777301788330078,-1.830807089805603,-0.36386239528656006
1729114217720518700,41.6905185546875,0.25452423095703125,-2.298128604888916,0.13362041115760803
1729114217758453500,41.72845361328125,1.2283449172973633,-1.8568321466445923,-0.2715478837490082
1729114217796388000,41.76638818359375,-0.31137847900390625,-1.9337188005447388,-0.23159119486808777
1729114217834323000,41.80432299804688,1.255838394165039,-2.654911518096924,0.5792051553726196
1729114217872257500,41.84225756835937,-0.5421724319458008,-2.7494637966156006,0.2960807681083679
1729114217910192400,41.8801923828125,0.8059511184692383,-2.7892143726348877,0.07150377333164215
1729114217948127000,41.918126953125,-0.3608121871948242,-3.1050403118133545,0.20747077465057373
1729114217986061800,41.95606176757813,-0.12597942352294922,-2.8364408016204834,0.37029045820236206
1729114218023996700,41.99399658203125,0.06606101989746094,-1.7665746212005615,0.16442954540252686
1729114218061931300,42.03193115234375,-0.045493125915527344,-1.5447618961334229,-0.0715741217136383
1729114218099866000,42.0698662109375,-0.018975257873535156,-1.8365044593811035,-0.06353458762168884
1729114218137800700,42.10780078125,0.5128879547119141,-1.7806479930877686,0.2469082921743393
1729114218175735600,42.14573559570312,-0.23082542419433594,-1.9173301458358765,-0.04073643684387207
1729114218213670400,42.18367041015625,0.14474010467529297,-1.7847118377685547,0.01417165994644165
1729114218251605000,42.22160498046875,-0.14807605743408203,-1.2093970775604248,0.13652218878269196
1729114218289539800,42.25953979492188,0.0064296722412109375,-1.063366174697876,-0.15371626615524292
1729114218327474400,42.29747436523437,-0.05218791961669922,-0.6028599739074707,0.012603431940078735
1729114218365409300,42.3354091796875,0.019933700561523438,-0.20501935482025146,-0.01146024465560913
1729114218403344100,42.37334423828125,-0.011934280395507812,0.10175693035125732,-0.06958061456680298
1729114218441278700,42.41127880859375,0.009224891662597656,0.42167720198631287,-0.07375246286392212
1729114218479213600,42.44921362304687,0.027776718139648438,0.6086985468864441,0.2599516212940216
1729114218517148200,42.487148193359374,-0.10759258270263672,0.6615551114082336,0.1358986496925354
1729114218555083000,42.5250830078125,0.07143306732177734,0.6414476633071899,-0.10254864394664764
1729114218593017900,42.56301782226563,-0.03334522247314453,0.5461915731430054,0.16860587894916534
1729114218630952400,42.60095239257812,0.01653289794921875,0.4143170118331909,-0.055079251527786255
1729114218668887300,42.63888720703125,-0.014657974243164062,0.34140920639038086,-0.01684713363647461
1729114218706822000,42.67682177734375,-0.020455360412597656,0.28048470616340637,0.09988433122634888
1729114218744756700,42.7147568359375,0.006630897521972656,0.1997305005788803,-0.019492968916893005
1729114218782691300,42.75269140625,-0.007391929626464844,0.16991734504699707,0.047855719923973083
1729114218820626200,42.790626220703125,-0.013735771179199219,0.136731818318367,0.012531235814094543
1729114218858561000,42.82856103515625,-0.006087303161621094,0.09914474934339523,0.0211343914270401
1729114218896495600,42.86649560546875,0.008146286010742188,0.06824328005313873,-0.000335693359375
1729114218934430500,42.90443041992187,-0.010561943054199219,0.0722147673368454,0.016814351081848145
1729114218972365000,42.942364990234374,0.006293296813964844,0.0563792809844017,0.02219131588935852
1729114219010300000,42.9802998046875,0.000858306884765625,0.04483138769865036,0.04550565779209137
1729114219048234800,43.01823486328125,0.01976490020751953,0.06828989088535309,0.031028270721435547
1729114219086169300,43.05616943359375,-0.021645545959472656,0.06534111499786377,0.05314233899116516
1729114219124104200,43.094104248046875,0.014665603637695312,0.056333236396312714,0.2731148600578308
1729114219162038800,43.132038818359376,0.5514812469482422,-0.3145334720611572,-0.39948832988739014
1729114219199973600,43.1699736328125,-0.2285308837890625,-0.19340896606445312,-0.1292213350534439
1729114219237908500,43.20790844726562,0.016252517700195312,0.20257601141929626,0.7689432501792908
1729114219275843000,43.245843017578125,-0.29656028747558594,0.11877530813217163,0.6706923842430115
1729114219313778000,43.28377783203125,0.17398357391357422,0.09314694255590439,0.9399205446243286
1729114219351712500,43.32171240234375,-0.04921436309814453,0.06895823776721954,1.0935217142105103
1729114219389647400,43.3596474609375,0.1402292251586914,-0.154526948928833,0.7598950266838074
1729114219427582000,43.39758203125,-0.2588348388671875,-0.39550521969795227,0.289939284324646
1729114219465516800,43.43551684570313,0.04555702209472656,-0.5671648979187012,-0.141018807888031
1729114219503451600,43.47345166015625,-0.04321765899658203,-0.4561045467853546,-0.16497157514095306
1729114219541386200,43.51138623046875,-0.001575469970703125,-0.41773465275764465,-0.4729503095149994
1729114219579321000,43.549321044921875,0.3598346710205078,-0.6269301772117615,-0.7965869903564453
1729114219617255700,43.587255615234376,-0.22138214111328125,-0.34805846214294434,-0.37428149580955505
1729114219655190500,43.6251904296875,0.17537879943847656,-0.4788289964199066,-0.7401776909828186
1729114219693125400,43.66312548828125,-0.03400421142578125,-0.2781432867050171,-0.3550933599472046
1729114219731060000,43.70106005859375,0.16447830200195312,-0.34992101788520813,-0.5117993354797363
1729114219768994800,43.73899487304688,-0.3419370651245117,-0.028283968567848206,-0.15690214931964874
1729114219806929400,43.77692944335938,-0.0064144134521484375,-0.15317614376544952,0.03036372736096382
1729114219844864300,43.8148642578125,0.018301010131835938,-0.25681838393211365,-0.12511612474918365
1729114219882799000,43.852799072265626,0.032837867736816406,-0.10375778377056122,0.25628015398979187
1729114219920733700,43.89073364257813,0.3057699203491211,-0.36604058742523193,-0.07354916632175446
1729114219958668500,43.92866845703125,0.024521827697753906,-0.22639693319797516,0.23062418401241302
1729114219996603100,43.96660302734375,-0.10370826721191406,-0.06473439931869507,0.21578863263130188
1729114220034538000,44.0045380859375,-0.033600807189941406,-0.3468623757362366,-0.0650370717048645
1729114220072472600,44.04247265625,-0.045144081115722656,-0.32810452580451965,-0.13866901397705078
1729114220110407400,44.08040747070312,-0.09430980682373047,-0.3188883066177368,-0.10500156879425049
1729114220148342300,44.11834228515625,-0.04908180236816406,-0.2957937717437744,-0.18985877931118011
1729114220186276900,44.15627685546875,0.0999612808227539,-0.40816232562065125,-0.6462633609771729
1729114220224211700,44.19421166992188,0.057015419006347656,-0.2706155776977539,-0.07647604495286942
1729114220262146300,44.23214624023438,0.09829425811767578,-0.3517197072505951,-0.1961793303489685
1729114220300081200,44.2700810546875,0.12385082244873047,-0.1903875470161438,-0.20995649695396423
1729114220338016000,44.30801611328125,-0.078216552734375,-0.13048511743545532,-0.02338162064552307
1729114220375950600,44.34595068359375,0.39549922943115234,-0.5695265531539917,-0.023269087076187134
1729114220413885400,44.38388549804687,-0.2160930633544922,-0.37948325276374817,0.44846510887145996
1729114220451820000,44.421820068359374,-0.044246673583984375,-0.43246862292289734,0.06655791401863098
1729114220489755000,44.4597548828125,0.06138420104980469,-0.5496903657913208,-0.598127007484436
1729114220527689700,44.49768969726563,-0.08687496185302734,-0.46640095114707947,-0.627423882484436
1729114220565624300,44.53562426757812,-0.12820148468017578,-0.47383466362953186,-0.907254159450531
1729114220603559200,44.57355908203125,-0.1305398941040039,-0.31136295199394226,-0.3819406032562256
1729114220641493800,44.61149365234375,0.0985107421875,-0.39532798528671265,-0.5784306526184082
1729114220679428600,44.6494287109375,0.06933116912841797,-0.43957141041755676,-1.1823302507400513
1729114220717363200,44.68736328125,-0.097991943359375,-0.2548748850822449,-0.3630162477493286
1729114220755298000,44.725298095703124,-0.1549234390258789,-0.15978386998176575,-0.12766331434249878
1729114220793233000,44.76323291015625,0.14613056182861328,-0.38808223605155945,-0.3290095925331116
1729114220831167500,44.80116748046875,-0.22487926483154297,-0.269502729177475,-0.41717806458473206
1729114220869102300,44.83910229492187,0.33085155487060547,-0.38606593012809753,-0.8545746803283691
1729114220907037000,44.87703686523437,-0.39984893798828125,-0.2872808575630188,-0.46843671798706055
1729114220944971800,44.9149716796875,0.3784923553466797,-0.33855554461479187,-0.26954972743988037
1729114220982906600,44.95290673828125,-0.17020130157470703,-0.16032052040100098,-1.206298828125
1729114221020841200,44.99084130859375,0.14946651458740234,0.07546952366828918,-0.8252288103103638
1729114221058776000,45.028776123046875,-0.3353700637817383,0.12794673442840576,-2.1894948482513428
1729114221096710700,45.066710693359376,0.28627777099609375,-0.01610502600669861,-2.0409433841705322
1729114221134645500,45.1046455078125,-0.46527957916259766,0.3386874794960022,-0.5260578989982605
1729114221172580400,45.14258032226562,-0.3486366271972656,0.3401830196380615,0.35593533515930176
1729114221210515000,45.180514892578124,-0.03125190734863281,0.323894739151001,-0.34765350818634033
1729114221248449800,45.21844970703125,0.21027755737304688,0.31128421425819397,0.03272300958633423
1729114221286384400,45.25638427734375,-0.027876853942871094,0.3131224513053894,-0.003269180655479431
1729114221324319200,45.2943193359375,-0.0236358642578125,0.2083023488521576,-0.09179587662220001
1729114221362254000,45.332254150390625,0.0052490234375,0.2147301733493805,-0.05404966324567795
1729114221400188700,45.370188720703126,0.0072002410888671875,0.2347758561372757,-0.010463044047355652
1729114221438123500,45.40812353515625,-0.02183818817138672,0.2010403275489807,-0.03901929408311844
1729114221476058000,45.44605810546875,0.016564369201660156,0.20063111186027527,-0.03731394559144974
1729114221513993000,45.483992919921874,-0.014616966247558594,0.2139294445514679,-0.021609418094158173
1729114221551927600,45.521927490234376,0.01949596405029297,0.1862325668334961,-0.030490174889564514
1729114221589862400,45.5598623046875,-0.016902923583984375,0.17269089818000793,-0.009996011853218079
1729114221627797200,45.59779736328125,0.006154060363769531,0.1387479305267334,-0.018893204629421234
1729114221665731800,45.63573193359375,-0.011469841003417969,0.11264815926551819,-0.010246865451335907
1729114221703666700,45.67366674804688,0.01614856719970703,0.08885730057954788,-0.012938901782035828
1729114221741601500,45.7116015625,-0.009840965270996094,0.09416478127241135,-0.016722097992897034
1729114221779536100,45.7495361328125,0.0037841796875,0.08453584462404251,-0.006132058799266815
1729114221817471000,45.787470947265625,-0.001018524169921875,0.09378774464130402,-0.003115817904472351
1729114221855405600,45.825405517578126,0.008516311645507812,0.07314634323120117,-0.0022211894392967224
1729114221893340400,45.86334033203125,0.003704071044921875,0.0608920156955719,-0.00603397935628891
1729114221931275000,45.90127490234375,0.003932952880859375,0.04908106476068497,-0.005413621664047241
1729114221969209900,45.9392099609375,-0.007670402526855469,0.05261722207069397,-0.011269979178905487
1729114222007144700,45.97714477539063,-0.0023193359375,0.04247713088989258,0.003254428505897522
1729114222045079300,46.01507934570313,0.004088401794433594,0.02624891698360443,-0.008206494152545929
1729114222083014100,46.05301416015625,0.0002593994140625,0.03802758455276489,0.006676532328128815
1729114222120949000,46.090948974609375,0.0027456283569335938,0.02730468660593033,-0.0018648579716682434
