time,seconds_elapsed,z,y,x
1729114176194459000,0.164458984375,0.0004581354442052543,-0.0004581354442052543,-0.0009926267666742206
1729114176227792000,0.1977919921875,0,-0.00038177953683771193,-0.0005344913806766272
1729114176261124900,0.231124755859375,0.0011453386396169662,0.00015271181473508477,0.00022906772210262716
1729114176294458000,0.2644580078125,0.00007635590736754239,0.0004581354442052543,-0.0008399150101467967
1729114176327791000,0.297791015625,0.0006108472589403391,0,0.00022906772210262716
1729114176361124000,0.3311240234375,0.00007635590736754239,-0.0009926267666742206,-0.0005344913806766272
1729114176394457000,0.36445703125,0,-0.00022906772210262716,0.00030542362947016954
1729114176427790000,0.3977900390625,0,-0.00007635590736754239,-0.00022906772210262716
1729114176461123000,0.431123046875,0,-0.0007635590736754239,0.00007635590736754239
1729114176494456000,0.4644560546875,0.00030542362947016954,-0.00030542362947016954,0.00038177953683771193
1729114176527789000,0.4977890625,0.0006108472589403391,-0.00015271181473508477,-0.00022906772210262716
1729114176561122000,0.5311220703125,0.00007635590736754239,0,-0.00022906772210262716
1729114176594455300,0.564455322265625,0,-0.00030542362947016954,-0.0008399150101467967
1729114176627788300,0.597788330078125,0,0,0.00015271181473508477
1729114176661121300,0.631121337890625,0,-0.00015271181473508477,0.00038177953683771193
1729114176694454300,0.664454345703125,0.0006108472589403391,-0.0006108472589403391,-0.00015271181473508477
1729114176727787300,0.697787353515625,0,-0.00015271181473508477,0.00038177953683771193
1729114176761120300,0.731120361328125,0.0006108472589403391,-0.0006108472589403391,-0.00022906772210262716
1729114176794453200,0.764453369140625,0.0004581354442052543,-0.00022906772210262716,0
1729114176827786200,0.7977861328125,0.00007635590736754239,-0.0006108472589403391,-0.00022906772210262716
1729114176861119200,0.831119140625,0.00015271181473508477,-0.00015271181473508477,-0.00022906772210262716
1729114176894452500,0.864452392578125,0.00030542362947016954,0,-0.00022906772210262716
1729114176927785500,0.897785400390625,0.0006108472589403391,-0.0004581354442052543,-0.00022906772210262716
1729114176961118500,0.931118408203125,0.0006108472589403391,-0.0006108472589403391,-0.00022906772210262716
1729114176994451500,0.964451416015625,0,-0.00015271181473508477,0.00030542362947016954
1729114177027784400,0.997784423828125,0,-0.0006108472589403391,-0.00022906772210262716
1729114177061117400,1.031117431640625,0.0004581354442052543,-0.0006108472589403391,0
1729114177094450400,1.064450439453125,0,-0.0006108472589403391,-0.00022906772210262716
1729114177127783400,1.097783447265625,0,-0.0006108472589403391,-0.00030542362947016954
1729114177161116400,1.131116455078125,0,-0.00022906772210262716,-0.00022906772210262716
1729114177194449700,1.16444970703125,0,-0.00038177953683771193,-0.00022906772210262716
1729114177227782700,1.19778271484375,0,0,-0.00030542362947016954
1729114177261115600,1.23111572265625,0,-0.0005344913806766272,-0.00022906772210262716
1729114177294448600,1.26444873046875,0,-0.00022906772210262716,0.00022906772210262716
1729114177327781600,1.29778173828125,0.00015271181473508477,-0.00038177953683771193,-0.00022906772210262716
1729114177361114600,1.331114501953125,0,-0.0006108472589403391,0.00038177953683771193
1729114177394447600,1.364447509765625,0,-0.00007635590736754239,-0.00015271181473508477
1729114177427780600,1.397780517578125,0.0004581354442052543,-0.0004581354442052543,-0.00022906772210262716
1729114177461113600,1.431113525390625,-0.00022906772210262716,-0.00030542362947016954,0.00007635590736754239
1729114177494446800,1.46444677734375,0,0,-0.00022906772210262716
1729114177527779800,1.49777978515625,0,0,-0.0007635590736754239
1729114177561112800,1.53111279296875,0.00022906772210262716,-0.00022906772210262716,0.00022906772210262716
1729114177594445800,1.56444580078125,0.0006108472589403391,-0.00030542362947016954,0.00007635590736754239
1729114177627778800,1.59777880859375,0,-0.00015271181473508477,-0.0008399150101467967
1729114177661111800,1.63111181640625,0,0,-0.00022906772210262716
1729114177694444800,1.66444482421875,0,-0.0004581354442052543,-0.00022906772210262716
1729114177727777800,1.69777783203125,0,0,-0.0005344913806766272
1729114177761110800,1.73111083984375,0,-0.00030542362947016954,0
1729114177794444000,1.764444091796875,0.00007635590736754239,-0.0006108472589403391,-0.00022906772210262716
1729114177827777000,1.797777099609375,0.0006108472589403391,-0.0006108472589403391,0.00030542362947016954
1729114177861110000,1.831110107421875,0,-0.0006108472589403391,-0.00022906772210262716
1729114177894443000,1.864443115234375,0,-0.00015271181473508477,0
1729114177927776000,1.89777587890625,0,-0.0006108472589403391,-0.00022906772210262716
1729114177961109000,1.93110888671875,0,-0.0006108472589403391,-0.00022906772210262716
1729114177994442000,1.96444189453125,0,-0.00038177953683771193,-0.00022906772210262716
1729114178027775000,1.99777490234375,0.00022906772210262716,0,-0.00022906772210262716
1729114178061108000,2.03110791015625,0,0,0.00038177953683771193
1729114178094441200,2.064441162109375,0,-0.0005344913806766272,-0.00022906772210262716
1729114178127774200,2.097774169921875,0.00030542362947016954,-0.0006108472589403391,0.00007635590736754239
1729114178161107200,2.131107177734375,0.00022906772210262716,-0.0006108472589403391,-0.00022906772210262716
1729114178194440200,2.164440185546875,0.0006108472589403391,-0.0005344913806766272,-0.00022906772210262716
1729114178227773200,2.197773193359375,0.0005344913806766272,0,-0.00022906772210262716
1729114178261106200,2.231106201171875,0.00030542362947016954,0,-0.00022906772210262716
1729114178294439200,2.264439208984375,0.00022906772210262716,-0.0006108472589403391,0.00038177953683771193
1729114178327772200,2.297772216796875,0.0005344913806766272,-0.0010689827613532543,-0.00022906772210262716
1729114178361105400,2.33110546875,0,0,-0.00022906772210262716
1729114178394438400,2.3644384765625,0.00022906772210262716,-0.0006108472589403391,0
1729114178427771400,2.397771484375,0,-0.0006108472589403391,-0.00022906772210262716
1729114178461104400,2.4311044921875,0,-0.00007635590736754239,-0.00022906772210262716
1729114178494437400,2.464437255859375,-0.0005344913806766272,-0.00007635590736754239,-0.0007635590736754239
1729114178527770400,2.497770263671875,0.00022906772210262716,-0.00022906772210262716,-0.00022906772210262716
1729114178561103400,2.531103271484375,-0.0005344913806766272,-0.00022906772210262716,-0.00038177953683771193
1729114178594436400,2.564436279296875,0.0004581354442052543,0.00022906772210262716,0
1729114178627769300,2.597769287109375,-0.00015271181473508477,-0.00022906772210262716,-0.00007635590736754239
1729114178661102600,2.6311025390625,-0.00015271181473508477,-0.000687203137204051,0.00030542362947016954
1729114178694435600,2.664435546875,0.00015271181473508477,0.00038177953683771193,-0.00007635590736754239
1729114178727768600,2.6977685546875,-0.00022906772210262716,0.00022906772210262716,0
1729114178761101600,2.7311015625,-0.0007635590736754239,-0.00022906772210262716,-0.00007635590736754239
1729114178794434600,2.7644345703125,0.00022906772210262716,-0.00022906772210262716,0.00007635590736754239
1729114178827767600,2.797767578125,-0.00015271181473508477,-0.00022906772210262716,-0.00038177953683771193
1729114178861100500,2.8311005859375,-0.00015271181473508477,-0.00007635590736754239,0.00007635590736754239
1729114178894433500,2.86443359375,-0.00015271181473508477,-0.00022906772210262716,-0.00007635590736754239
1729114178927766500,2.8977666015625,0.00030542362947016954,-0.00007635590736754239,-0.00007635590736754239
1729114178961099800,2.931099853515625,-0.0004581354442052543,0.00038177953683771193,-0.00007635590736754239
1729114178994432800,2.964432861328125,0.00007635590736754239,0.0004581354442052543,-0.00007635590736754239
1729114179027765800,2.997765869140625,-0.00015271181473508477,-0.00015271181473508477,0.0005344913806766272
1729114179061098800,3.0310986328125,-0.00007635590736754239,0.0004581354442052543,-0.00007635590736754239
1729114179094431700,3.064431640625,0.00015271181473508477,0.0004581354442052543,-0.00007635590736754239
1729114179127764700,3.0977646484375,0.00007635590736754239,0.0004581354442052543,-0.00007635590736754239
1729114179161097700,3.13109765625,0.0005344913806766272,-0.00022906772210262716,-0.00007635590736754239
1729114179194430700,3.1644306640625,0,-0.00022906772210262716,-0.00007635590736754239
1729114179227763700,3.197763671875,-0.00007635590736754239,-0.00022906772210262716,-0.0004581354442052543
1729114179261097000,3.231096923828125,0.00030542362947016954,-0.00022906772210262716,0.00015271181473508477
1729114179294430000,3.264429931640625,-0.0006108472589403391,0.00030542362947016954,-0.00007635590736754239
1729114179327763000,3.297762939453125,-0.00007635590736754239,0.00030542362947016954,-0.00007635590736754239
1729114179361096000,3.331095947265625,0.00030542362947016954,0.00007635590736754239,-0.00007635590736754239
1729114179394429000,3.364428955078125,-0.00007635590736754239,-0.00030542362947016954,-0.00030542362947016954
1729114179427762000,3.397761962890625,0.0005344913806766272,0.00030542362947016954,-0.0006108472589403391
1729114179461095000,3.431094970703125,0.0005344913806766272,-0.00022906772210262716,-0.00007635590736754239
1729114179494428000,3.464427978515625,0.00007635590736754239,0.00007635590736754239,0.00030542362947016954
1729114179527761000,3.497760986328125,0.00015271181473508477,-0.00007635590736754239,0.00030542362947016954
1729114179561094100,3.53109423828125,0.0004581354442052543,0.00030542362947016954,-0.00015271181473508477
1729114179594427100,3.56442724609375,0.0004581354442052543,0.00030542362947016954,-0.00007635590736754239
1729114179627760000,3.597760009765625,0.00007635590736754239,0.00007635590736754239,0.00015271181473508477
1729114179661093000,3.631093017578125,0.00015271181473508477,0.00030542362947016954,0
1729114179694426000,3.664426025390625,0.00030542362947016954,-0.00015271181473508477,0
1729114179727759000,3.697759033203125,-0.00022906772210262716,0.00030542362947016954,0.0005344913806766272
1729114179761092000,3.731092041015625,0,-0.0004581354442052543,0
1729114179794425000,3.764425048828125,0.00007635590736754239,0,0
1729114179827758000,3.797758056640625,-0.00022906772210262716,-0.00015271181473508477,-0.00015271181473508477
1729114179861091300,3.83109130859375,-0.00022906772210262716,-0.00030542362947016954,0
1729114179894424300,3.86442431640625,-0.00022906772210262716,-0.00015271181473508477,0
1729114179927757300,3.89775732421875,-0.00030542362947016954,0,-0.00030542362947016954
1729114179961090300,3.93109033203125,-0.0006108472589403391,0.00015271181473508477,-0.00030542362947016954
1729114179994423300,3.96442333984375,-0.00030542362947016954,0.00030542362947016954,0
1729114180027756300,3.99775634765625,-0.00015271181473508477,-0.00030542362947016954,0.00015271181473508477
1729114180061089300,4.03108935546875,0,0,-0.00030542362947016954
1729114180094422300,4.06442236328125,-0.00015271181473508477,-0.00030542362947016954,-0.0004581354442052543
1729114180127755300,4.09775537109375,-0.0008399150101467967,-0.00030542362947016954,0
1729114180161088500,4.131088623046875,0.00022906772210262716,-0.00015271181473508477,0
1729114180194421500,4.16442138671875,-0.00022906772210262716,0.0006108472589403391,0
1729114180227754500,4.19775439453125,-0.00007635590736754239,0.00015271181473508477,0.0004581354442052543
1729114180261087500,4.23108740234375,-0.00022906772210262716,0.00030542362947016954,0.00007635590736754239
1729114180294420500,4.26442041015625,0.00015271181473508477,0.00030542362947016954,0.00015271181473508477
1729114180327753500,4.29775341796875,-0.00015271181473508477,0.00030542362947016954,0
1729114180361086500,4.33108642578125,-0.00015271181473508477,0.00030542362947016954,0
1729114180394419500,4.36441943359375,-0.00007635590736754239,0.00030542362947016954,-0.0005344913806766272
1729114180427752400,4.39775244140625,-0.00007635590736754239,0.00030542362947016954,0
1729114180461085700,4.431085693359375,0.00022906772210262716,-0.00007635590736754239,0.00030542362947016954
1729114180494418700,4.464418701171875,0.0004581354442052543,-0.00030542362947016954,0
1729114180527751700,4.497751708984375,-0.00015271181473508477,-0.00022906772210262716,0
1729114180561084700,4.531084716796875,-0.00015271181473508477,0.00030542362947016954,-0.0005344913806766272
1729114180594417700,4.564417724609375,-0.00015271181473508477,0.00022906772210262716,0
1729114180627750700,4.597750732421875,0.00015271181473508477,0.00022906772210262716,0.00038177953683771193
1729114180661083600,4.631083740234375,0.0004581354442052543,0.00015271181473508477,-0.0005344913806766272
1729114180694416600,4.664416748046875,-0.00007635590736754239,0.00015271181473508477,0
1729114180727749600,4.69774951171875,-0.00015271181473508477,-0.00022906772210262716,0
1729114180761083000,4.731082763671875,0.0004581354442052543,-0.0004581354442052543,0
1729114180794415900,4.764415771484375,0.0004581354442052543,0.00015271181473508477,0.0004581354442052543
1729114180827748900,4.797748779296875,-0.00007635590736754239,0.00015271181473508477,0
1729114180861081900,4.831081787109375,-0.00015271181473508477,0.0007635590736754239,0
1729114180894414800,4.864414794921875,-0.00015271181473508477,0.00015271181473508477,-0.00030542362947016954
1729114180927747800,4.897747802734375,-0.00007635590736754239,0,0
1729114180961080800,4.931080810546875,-0.0007635590736754239,0.00015271181473508477,0
1729114180994413800,4.964413818359375,0.00022906772210262716,-0.00030542362947016954,0.00015271181473508477
1729114181027747000,4.9977470703125,0.00038177953683771193,0.00015271181473508477,0.00030542362947016954
1729114181061080000,5.031080078125,-0.00038177953683771193,-0.00030542362947016954,0
1729114181094413000,5.0644130859375,-0.0008399150101467967,-0.0004581354442052543,0.0006108472589403391
1729114181127746000,5.09774609375,0.00007635590736754239,0,0
1729114181161079000,5.1310791015625,-0.00022906772210262716,-0.00015271181473508477,0
1729114181194412000,5.164412109375,0.00022906772210262716,0.00015271181473508477,0.0004581354442052543
1729114181227745000,5.1977451171875,-0.00022906772210262716,0.00015271181473508477,0
1729114181261078000,5.231078125,0.00022906772210262716,0,0.0004581354442052543
1729114181294411000,5.264410888671875,0.00007635590736754239,0.00015271181473508477,0
1729114181327744300,5.297744140625,-0.0006108472589403391,0.00015271181473508477,-0.0004581354442052543
1729114181361077200,5.3310771484375,-0.00015271181473508477,0.00007635590736754239,-0.00007635590736754239
1729114181394410200,5.36441015625,-0.00007635590736754239,-0.0004581354442052543,-0.00007635590736754239
1729114181427743200,5.3977431640625,0.00022906772210262716,-0.0004581354442052543,0.00022906772210262716
1729114181461076200,5.431076171875,0.00007635590736754239,-0.0004581354442052543,0.00015271181473508477
1729114181494409200,5.4644091796875,0.0004581354442052543,0.00007635590736754239,-0.00007635590736754239
1729114181527742200,5.4977421875,0.00038177953683771193,-0.0004581354442052543,0.0004581354442052543
1729114181561075200,5.5310751953125,0.00015271181473508477,-0.0004581354442052543,-0.00007635590736754239
1729114181594408200,5.564408203125,-0.00007635590736754239,0,0.00015271181473508477
1729114181627741400,5.597741455078125,0.0005344913806766272,0.00022906772210262716,-0.00007635590736754239
1729114181661074400,5.631074462890625,0,-0.00030542362947016954,-0.00007635590736754239
1729114181694407400,5.664407470703125,-0.00015271181473508477,0.00022906772210262716,-0.00007635590736754239
1729114181727740400,5.697740478515625,0.0004581354442052543,-0.00038177953683771193,-0.00007635590736754239
1729114181761073400,5.731073486328125,-0.00015271181473508477,0.00022906772210262716,-0.0006108472589403391
1729114181794406400,5.764406494140625,0.00038177953683771193,0.00030542362947016954,-0.00007635590736754239
1729114181827739400,5.797739501953125,-0.00015271181473508477,0.00030542362947016954,-0.00007635590736754239
1729114181861072400,5.831072265625,-0.0007635590736754239,0.00030542362947016954,-0.00007635590736754239
1729114181894405400,5.8644052734375,-0.00030542362947016954,0.00030542362947016954,0.0005344913806766272
1729114181927738600,5.897738525390625,-0.0008399150101467967,0.00030542362947016954,-0.0006108472589403391
1729114181961071600,5.931071533203125,0.00022906772210262716,0.00015271181473508477,-0.00007635590736754239
1729114181994404600,5.964404541015625,0.00015271181473508477,-0.00030542362947016954,-0.00007635590736754239
1729114182027737600,5.997737548828125,-0.00022906772210262716,0.00030542362947016954,0
1729114182061070600,6.031070556640625,-0.00022906772210262716,0.00030542362947016954,0.0005344913806766272
1729114182094403600,6.064403564453125,0,0.00015271181473508477,-0.00022906772210262716
1729114182127736600,6.097736572265625,-0.00015271181473508477,0.00030542362947016954,-0.00007635590736754239
1729114182161069600,6.131069580078125,-0.00030542362947016954,0.00022906772210262716,-0.0005344913806766272
1729114182194402600,6.164402587890625,-0.00015271181473508477,0.00022906772210262716,-0.00007635590736754239
1729114182227735800,6.19773583984375,-0.00015271181473508477,0.00038177953683771193,-0.00007635590736754239
1729114182261068800,6.23106884765625,0.00015271181473508477,-0.00007635590736754239,-0.00007635590736754239
1729114182294401800,6.26440185546875,-0.00007635590736754239,0.00022906772210262716,-0.00007635590736754239
1729114182327734800,6.29773486328125,0.0005344913806766272,0.00022906772210262716,-0.0006108472589403391
1729114182361067800,6.33106787109375,0.00022906772210262716,0.00030542362947016954,0.0004581354442052543
1729114182394400800,6.36440087890625,0.00030542362947016954,-0.00015271181473508477,0
1729114182427733800,6.397733642578125,0.00015271181473508477,-0.0004581354442052543,0.00038177953683771193
1729114182461066800,6.431066650390625,0,-0.0004581354442052543,0.0006108472589403391
1729114182494399700,6.464399658203125,0,0.00015271181473508477,0.00007635590736754239
1729114182527733000,6.49773291015625,-0.00038177953683771193,-0.00015271181473508477,0
1729114182561066000,6.53106591796875,0.00015271181473508477,-0.00007635590736754239,0
1729114182594399000,6.56439892578125,-0.0005344913806766272,-0.0005344913806766272,-0.00007635590736754239
1729114182627732000,6.59773193359375,0.0005344913806766272,0,-0.00015271181473508477
1729114182661065000,6.63106494140625,-0.00007635590736754239,0.00007635590736754239,0
1729114182694398000,6.66439794921875,0.00015271181473508477,-0.00007635590736754239,-0.0004581354442052543
1729114182727731000,6.69773095703125,-0.00007635590736754239,0.00015271181473508477,0.0005344913806766272
1729114182761064000,6.73106396484375,-0.00007635590736754239,-0.00030542362947016954,0.0005344913806766272
1729114182794397000,6.76439697265625,-0.00007635590736754239,0.00015271181473508477,0
1729114182827730200,6.797730224609375,0.00015271181473508477,-0.00022906772210262716,0
1729114182861063200,6.831063232421875,-0.00007635590736754239,0.00007635590736754239,-0.00007635590736754239
1729114182894396200,6.864396240234375,-0.00007635590736754239,0.00007635590736754239,0.0005344913806766272
1729114182927729200,6.897729248046875,0.00007635590736754239,0.00015271181473508477,-0.00007635590736754239
1729114182961062100,6.931062255859375,-0.0004581354442052543,0.00015271181473508477,-0.00030542362947016954
1729114182994395100,6.96439501953125,0,-0.00015271181473508477,-0.00022906772210262716
1729114183027728100,6.99772802734375,0.0022143214009702206,-0.0050394898280501366,0.007941014133393764
1729114183061061000,7.03106103515625,-0.0029778804164379835,-0.009009997360408306,0.007101099472492933
1729114183094394000,7.06439404296875,-0.01626380905508995,-0.008857285603880882,0.007101099472492933
1729114183127727400,7.097727294921875,-0.025273805484175682,-0.0034360159188508987,0.008933641016483307
1729114183161060400,7.131060302734375,-0.03374931216239929,0.010918894782662392,0.00030542362947016954
1729114183194393300,7.164393310546875,-0.06482616811990738,0.007559234742075205,0.00038177953683771193
1729114183227726300,7.197726318359375,-0.08399149775505066,0.004199574701488018,-0.0008399150101467967
1729114183261059300,7.231059326171875,-0.11896250396966934,-0.004352286923676729,-0.0007635590736754239
1729114183294392300,7.264392333984375,-0.13270656764507294,-0.009391776286065578,0.004963133949786425
1729114183327725300,7.297725341796875,-0.11796987801790237,0.005650337319821119,0.0032069480512291193
1729114183361058300,7.331058349609375,-0.1286597102880478,0.0018325417768210173,0.006948387715965509
1729114183394391600,7.3643916015625,-0.17600037157535553,-0.0165692325681448,0.008704573847353458
1729114183427724500,7.397724609375,-0.20211409032344818,-0.01382041908800602,0.018707197159528732
1729114183461057500,7.4310576171875,-0.18348324298858643,0.00786465872079134,-0.012064233422279358
1729114183494390500,7.464390625,-0.20669543743133545,-0.000687203137204051,0.014660334214568138
1729114183527723500,7.4977236328125,-0.21036052703857422,-0.012827792204916477,0.022601349279284477
1729114183561056500,7.531056396484375,-0.17737478017807007,0.03008422814309597,-0.0038177953101694584
1729114183594389500,7.564389404296875,-0.1336991935968399,0.05650337040424347,0.0034360159188508987
1729114183627722500,7.597722412109375,-0.120871402323246,0.005803049076348543,0.027411770075559616
1729114183661055500,7.631055419921875,-0.1074327602982521,0.002061609411612153,0.0358109213411808
1729114183694388700,7.664388671875,-0.10017894953489304,-0.025961007922887802,-0.013133215717971325
1729114183727721700,7.6977216796875,-0.09093988686800003,-0.0065666078589856625,0.09941539168357849
1729114183761054700,7.7310546875,-0.0922379344701767,-0.027717193588614464,-0.03894151374697685
1729114183794387700,7.7643876953125,-0.04558447748422623,0.0561215914785862,0.03145863488316536
1729114183827720700,7.797720703125,-0.08154810965061188,0.020463382825255394,-0.09116895496845245
1729114183861053700,7.8310537109375,-0.08040276914834976,-0.005268557462841272,0.011987877078354359
1729114183894386700,7.86438671875,-0.0659715011715889,-0.008017370477318764,-0.03458922728896141
1729114183927719700,7.8977197265625,-0.06245913356542587,-0.006719320081174374,-0.04337015375494957
1729114183961052700,7.931052734375,-0.0623827762901783,0.007941014133393764,-0.03298575058579445
1729114183994386000,7.964385986328125,-0.055892523378133774,0.01626380905508995,0.03199312463402748
1729114184027719000,7.997718994140625,-0.05528167635202408,0.004046862944960594,-0.03993413969874382
1729114184061052000,8.031052001953125,-0.06452073901891708,0.004504998680204153,0.0014507622690871358
1729114184094385000,8.064385009765624,-0.06253548711538315,-0.043981000781059265,0.0841442123055458
1729114184127718000,8.0977177734375,-0.03955236077308655,-0.03245126083493233,-0.02283041551709175
1729114184161051000,8.13105078125,-0.02283041551709175,-0.02680092304944992,0.021226942539215088
1729114184194384000,8.1643837890625,-0.006719320081174374,0.013133215717971325,0.04474456235766411
1729114184227716900,8.197716796875,0.013973130844533443,0.044820915907621384,-0.02557922899723053
1729114184261049900,8.2310498046875,0.018019994720816612,0.04558447748422623,0.04115583375096321
1729114184294383000,8.264383056640625,0.05810684710741043,0.011529741808772087,-0.033291175961494446
1729114184327716000,8.297716064453125,0.08635853230953217,-0.0328330397605896,-0.004734066314995289
1729114184361049000,8.331049072265625,0.11323580890893936,-0.017180079594254494,-0.010995250195264816
1729114184394382000,8.364382080078125,0.12797249853610992,-0.004275931045413017,-0.03588727489113808
1729114184427715000,8.397715087890624,0.13301199674606323,0.0328330397605896,0.026724567636847496
1729114184461048000,8.431048095703124,0.15736952424049377,-0.019241688773036003,-0.03733803704380989
1729114184494381000,8.464381103515626,0.17676392197608948,-0.027946261689066887,0.024662958458065987
1729114184527714000,8.497714111328126,0.19424942135810852,-0.03802524134516716,-0.01511846948415041
1729114184561047000,8.531047119140625,0.2145601063966751,-0.016645587980747223,0.004504998680204153
1729114184594380300,8.56438037109375,0.22311195731163025,-0.017409147694706917,0.06994201242923737
1729114184627713300,8.59771337890625,0.23059484362602234,-0.005650337319821119,-0.014431266114115715
1729114184661046300,8.63104638671875,0.20753535628318787,0.044362783432006836,0.062306419014930725
1729114184694379300,8.664379150390625,0.21791976690292358,0.01626380905508995,-0.0022143214009702206
1729114184727712300,8.697712158203124,0.1937149316072464,-0.017561858519911766,0.020463382825255394
1729114184761045200,8.731045166015624,0.1913478970527649,-0.0165692325681448,0.014583977870643139
1729114184794378200,8.764378173828124,0.1847049444913864,0.04367557913064957,0.047264307737350464
1729114184827711200,8.797711181640626,0.1692046970129013,0.007635590620338917,-0.055739812552928925
1729114184861044200,8.831044189453126,0.1435490995645523,0.048486001789569855,0.04283566400408745
1729114184894377500,8.86437744140625,0.12881241738796234,0.022219568490982056,-0.027411770075559616
1729114184927710500,8.89771044921875,0.13217207789421082,0.02214321307837963,0.0017561858985573053
1729114184961043500,8.93104345703125,0.10964708030223846,0.007177455350756645,0.02817532978951931
1729114184994376400,8.96437646484375,0.11216682940721512,-0.010155336000025272,0.0014507622690871358
1729114185027709400,8.99770947265625,0.08307522535324097,0.0037414394319057465,0.01748550310730934
1729114185061042400,9.03104248046875,0.07124006003141403,0.007330167107284069,-0.03840702027082443
1729114185094375400,9.06437548828125,0.06635328382253647,-0.007101099472492933,-0.04978405311703682
1729114185127708400,9.09770849609375,0.07948649674654007,0.01588202826678753,0.03420744836330414
1729114185161041400,9.13104150390625,0.07368344813585281,0.02092151902616024,-0.07589777559041977
1729114185194374700,9.164374755859376,0.03214583545923233,0.008017370477318764,0.010308047756552696
1729114185227707600,9.197707763671875,0.04184303805232048,-0.04527905210852623,-0.04016320779919624
1729114185261040600,9.23104052734375,0.03978142887353897,-0.03268032893538475,-0.015194825828075409
1729114185294373600,9.26437353515625,0.05344913527369499,0.03367295488715172,-0.004886778071522713
1729114185327706600,9.29770654296875,0.05322006717324257,0.06917845457792282,-0.08032641559839249
1729114185361039600,9.33103955078125,0.023212196305394173,0.03420744836330414,0.04230117425322533
1729114185394372600,9.36437255859375,0.037414394319057465,-0.018707197159528732,-0.03894151374697685
1729114185427705600,9.39770556640625,0.05276193097233772,-0.023823043331503868,0.005421269219368696
1729114185461038600,9.43103857421875,0.06383354216814041,0.009697199799120426,0.02176143415272236
1729114185494371800,9.464371826171876,0.04650074616074562,0.08353336155414581,0.03436015918850899
1729114185527704800,9.497704833984375,0.019623467698693275,0.018096350133419037,0.02924431301653385
1729114185561037800,9.531037841796875,0.03214583545923233,-0.03924693539738655,0.027946261689066887
1729114185594370800,9.564370849609375,0.03130592033267021,-0.042606595903635025,0.07101099193096161
1729114185627703800,9.597703857421875,0.044515494257211685,0.015500249341130257,0.01710372418165207
1729114185661036800,9.631036865234375,0.04367557913064957,0.030160583555698395,0.00916270911693573
1729114185694369800,9.664369873046875,0.03840702027082443,-0.03504735976457596,-0.00259610079228878
1729114185727702800,9.697702880859374,0.033978380262851715,-0.053143709897994995,-0.05070032179355621
1729114185761036000,9.7310361328125,0.06116108223795891,-0.021379653364419937,0.008704573847353458
1729114185794369000,9.764369140625,0.04413371533155441,0.020463382825255394,-0.04184303805232048
1729114185827702000,9.797701904296876,0.05085303261876106,0.03894151374697685,-0.0032069480512291193
1729114185861035000,9.831034912109375,0.04291202127933502,0.0022143214009702206,-0.01511846948415041
1729114185894368000,9.864367919921875,0.04023956134915352,-0.011147962883114815,-0.03443651273846626
1729114185927701000,9.897700927734375,0.05405998229980469,0.0006108472589403391,0.015652960166335106
1729114185961034000,9.931033935546875,0.05337277799844742,0.07345438003540039,0.03168770298361778
1729114185994367000,9.964366943359375,0.021150587126612663,0.03787253051996231,-0.05131116881966591
1729114186027700000,9.997699951171874,0.032756682485342026,0.02557922899723053,0.028480753302574158
1729114186061033200,10.031033203125,0.021837789565324783,-0.029473381116986275,-0.03993413969874382
1729114186094366200,10.0643662109375,0.03558185324072838,0.07062921673059464,-0.010842538438737392
1729114186127699200,10.09769921875,0.01916533336043358,0.0778830274939537,-0.06322269141674042
1729114186161032200,10.1310322265625,-0.0012216945178806782,-0.04543176665902138,0.008170082233846188
1729114186194365200,10.164365234375,0.01710372418165207,-0.05703786388039589,-0.023212196305394173
1729114186227698200,10.1976982421875,0.029473381116986275,-0.056961506605148315,-0.0018325417768210173
1729114186261031200,10.23103125,0.03855973482131958,0.016340164467692375,0.014583977870643139
1729114186294364200,10.2643642578125,0.013744063675403595,0.05337277799844742,-0.029091600328683853
1729114186327697200,10.297697265625,0.019623467698693275,-0.0492495596408844,-0.07215633243322372
1729114186361030400,10.331030517578125,0.020157959312200546,-0.06620056927204132,-0.038101598620414734
1729114186394363400,10.36436328125,0.0489441379904747,-0.04619532451033592,-0.05894676223397255
1729114186427696400,10.3976962890625,0.03565821051597595,0.04184303805232048,-0.08796200156211853
1729114186461029400,10.431029296875,0.024586603045463562,0.009544488042593002,-0.03199312463402748
1729114186494362400,10.4643623046875,0.02832804247736931,-0.03176405653357506,-0.022601349279284477
1729114186527695400,10.4976953125,0.03443651273846626,-0.026190076023340225,-0.05810684710741043
1729114186561028400,10.5310283203125,0.05337277799844742,-0.0051158457063138485,0.01954711228609085
1729114186594361300,10.564361328125,0.03229855000972748,0.041232191026210785,-0.013514995574951172
1729114186627694300,10.5976943359375,0.031229566782712936,-0.04153761267662048,-0.007559234742075205
1729114186661027600,10.631027587890625,0.03649812191724777,-0.02542651630938053,0.028098974376916885
1729114186694360600,10.664360595703124,0.04130854457616806,-0.04634803533554077,0.037567105144262314
1729114186727693600,10.697693603515624,0.02695363573729992,-0.04321744292974472,0.0328330397605896
1729114186761026600,10.731026611328126,0.03168770298361778,-0.011606098152697086,0.06826218217611313
1729114186794359600,10.764359619140626,0.03290939703583717,-0.021837789565324783,0.02435753494501114
1729114186827692500,10.797692626953125,0.03901786729693413,-0.013744063675403595,0.045202698558568954
1729114186861025500,10.831025634765625,0.03588727489113808,-0.015042114071547985,0.06100837141275406
1729114186894358500,10.864358642578125,0.03649812191724777,0.06322269141674042,0.004886778071522713
1729114186927691500,10.89769140625,0.029091600328683853,0.0006108472589403391,0.009009997360408306
1729114186961024800,10.931024658203125,0.039170581847429276,-0.02901524491608143,0.02764083817601204
1729114186994357800,10.964357666015625,0.04359922185540199,-0.05665608495473862,0.018936265259981155
1729114187027690800,10.997690673828124,0.04604261368513107,-0.015042114071547985,0.009468132629990578
1729114187061023700,11.031023681640624,0.04802786558866501,0.05008947476744652,0.05719057470560074
1729114187094356700,11.064356689453126,0.05566345527768135,0.02641914412379265,-0.03497100621461868
1729114187127689700,11.097689697265626,0.025884652510285378,0.05512896552681923,0.11018157750368118
1729114187161022700,11.131022705078125,0.04787515476346016,0.013667707331478596,0.03061871975660324
1729114187194355700,11.164355712890625,0.030847785994410515,0.02038702741265297,0.0024433890357613564
1729114187227688700,11.197688720703125,0.03184041380882263,0.030160583555698395,-0.0034360159188508987
1729114187261022000,11.23102197265625,0.028786176815629005,-0.01832541823387146,-0.07643226534128189
1729114187294355000,11.26435498046875,0.036192700266838074,0.04253023862838745,0.007711946498602629
1729114187327688000,11.29768798828125,0.026342788711190224,0.125987246632576,-0.019318044185638428
1729114187361021000,11.33102099609375,0.004123218823224306,0.07124006003141403,-0.07727217674255371
1729114187394354000,11.36435400390625,0.009697199799120426,0.01779092662036419,0.008093725889921188
1729114187427687000,11.39768701171875,0.0032069480512291193,-0.0459662564098835,-0.03420744836330414
1729114187461020000,11.43102001953125,0.004275931045413017,-0.01794363744556904,-0.06772769242525101
1729114187494353000,11.464352783203125,0.0021379655227065086,0.0032069480512291193,-0.04978405311703682
1729114187527686000,11.497685791015625,0.0030542362947016954,-0.025961007922887802,-0.0847550556063652
1729114187561019100,11.53101904296875,-0.0034360159188508987,-0.06444438546895981,-0.03214583545923233
1729114187594352000,11.56435205078125,0.010613471269607544,-0.003970507066696882,-0.044515494257211685
1729114187627685000,11.59768505859375,0.00519220158457756,0.03306210786104202,-0.052456509321928024
1729114187661018000,11.63101806640625,-0.010155336000025272,-0.05322006717324257,-0.021226942539215088
1729114187694351000,11.66435107421875,0.01710372418165207,-0.0653606578707695,-0.05421269312500954
1729114187727684000,11.69768408203125,0.03367295488715172,-0.039323292672634125,0.0012216945178806782
1729114187761017000,11.73101708984375,0.048486001789569855,0.027259059250354767,-0.012598725035786629
1729114187794350000,11.76435009765625,0.0261137206107378,0.03771981969475746,-0.038636088371276855
1729114187827683000,11.79768310546875,0.04428642615675926,0.037567105144262314,-0.1083490327000618
1729114187861016300,11.831016357421875,0.043446511030197144,0.0361163429915905,0.01572931744158268
1729114187894349300,11.864349365234375,0.03474193811416626,-0.003970507066696882,0.02008160389959812
1729114187927682300,11.897682373046875,0.026571854948997498,0.01885990984737873,0.043981000781059265
1729114187961015300,11.931015380859375,0.028480753302574158,0.005421269219368696,-0.032222192734479904
1729114187994348300,11.964348388671874,0.028251685202121735,0.007635590620338917,0.007177455350756645
1729114188027681300,11.997681396484374,0.02870982140302658,0.014049487188458443,0.0004581354442052543
1729114188061014300,12.03101416015625,0.029091600328683853,0.016340164467692375,0.014278554357588291
1729114188094347300,12.06434716796875,0.021990500390529633,0.009544488042593002,0.0462716780602932
1729114188127680500,12.097680419921875,0.023746687918901443,0.010842538438737392,0.052990999072790146
1729114188161013500,12.131013427734375,0.02680092304944992,0.0016798300202935934,0.007559234742075205
1729114188194346500,12.164346435546875,0.016340164467692375,0.025121092796325684,0.023212196305394173
1729114188227679500,12.197679443359375,0.020157959312200546,0.0029778804164379835,0.004657710436731577
1729114188261012500,12.231012451171875,0.01695101149380207,0.0029015245381742716,0.021837789565324783
1729114188294345500,12.264345458984375,0.006719320081174374,-0.01572931744158268,0.00519220158457756
1729114188327678500,12.297678466796874,0.01046075951308012,-0.016187451779842377,0.014278554357588291
1729114188361011500,12.331011474609374,0.019394399598240852,-0.004046862944960594,0.012064233422279358
1729114188394344400,12.364344482421876,-0.00015271181473508477,-0.006642963737249374,0.006948387715965509
1729114188427677700,12.397677734375,0.0006108472589403391,-0.015423892997205257,0.010766183026134968
1729114188461010700,12.4310107421875,-0.011300674639642239,-0.015652960166335106,0.008093725889921188
1729114188494343700,12.46434375,0.005497625097632408,-0.017027366906404495,0.011911521665751934
1729114188527676700,12.4976767578125,0.005955760832875967,-0.02244863659143448,0.010842538438737392
1729114188561009700,12.531009765625,-0.00007635590736754239,-0.0293970238417387,0.014278554357588291
1729114188594342700,12.5643427734375,0.006184828467667103,-0.030007870867848396,0.011529741808772087
1729114188627675600,12.597675537109374,0.008170082233846188,-0.012064233422279358,0.006032116711139679
1729114188661008600,12.631008544921874,-0.008475505746901035,0.0019088976550847292,-0.0023670331574976444
1729114188694341600,12.664341552734374,-0.004504998680204153,-0.0018325417768210173,-0.00007635590736754239
1729114188727675000,12.6976748046875,0.0037414394319057465,-0.00015271181473508477,-0.0009162708884105086
1729114188761007900,12.7310078125,-0.0008399150101467967,0.001985253533348441,-0.0011453386396169662
1729114188794340900,12.7643408203125,-0.00259610079228878,-0.00022906772210262716,-0.00015271181473508477
1729114188827673900,12.797673828125,0.0011453386396169662,0.0019088976550847292,-0.0007635590736754239
1729114188861006800,12.8310068359375,-0.0009162708884105086,0.0012216945178806782,-0.00015271181473508477
1729114188894339800,12.86433984375,-0.0004581354442052543,0.00022906772210262716,-0.00015271181473508477
1729114188927672800,12.8976728515625,0.0011453386396169662,0.0008399150101467967,0.0004581354442052543
1729114188961005800,12.931005859375,-0.0009926267666742206,0.00022906772210262716,0
1729114188994338800,12.9643388671875,0.0005344913806766272,0,-0.00015271181473508477
1729114189027672000,12.997672119140624,0.00022906772210262716,0.00022906772210262716,-0.00015271181473508477
1729114189061005000,13.031005126953126,-0.000687203137204051,0.00022906772210262716,-0.00015271181473508477
1729114189094338000,13.064338134765626,0.00038177953683771193,-0.00038177953683771193,0.00030542362947016954
1729114189127671000,13.097671142578125,0.00015271181473508477,-0.00038177953683771193,-0.00015271181473508477
1729114189161004000,13.131004150390625,-0.00007635590736754239,0.00022906772210262716,0.00030542362947016954
1729114189194337000,13.1643369140625,-0.00015271181473508477,0.00022906772210262716,-0.00015271181473508477
1729114189227670000,13.197669921875,-0.00022906772210262716,-0.00022906772210262716,-0.00022906772210262716
1729114189261003000,13.2310029296875,0.0005344913806766272,0.00022906772210262716,-0.00015271181473508477
1729114189294336000,13.2643359375,-0.00007635590736754239,0.00022906772210262716,0.0004581354442052543
1729114189327669200,13.297669189453124,0.0005344913806766272,0.00022906772210262716,0.0004581354442052543
1729114189361002200,13.331002197265626,0,0.00022906772210262716,0.00038177953683771193
1729114189394335200,13.364335205078126,-0.0004581354442052543,-0.0006108472589403391,-0.00015271181473508477
1729114189427668200,13.397668212890625,0.0005344913806766272,0.00022906772210262716,0.00030542362947016954
1729114189461001200,13.431001220703125,0.0005344913806766272,0.00022906772210262716,-0.00015271181473508477
1729114189494334200,13.464334228515625,0.0005344913806766272,0.00015271181473508477,-0.00015271181473508477
1729114189527667200,13.497667236328125,0.00015271181473508477,0.0006108472589403391,-0.00015271181473508477
1729114189561000200,13.531000244140625,0.00015271181473508477,0.00007635590736754239,0.00007635590736754239
1729114189594333200,13.564333251953125,0.0006108472589403391,0.00022906772210262716,-0.00015271181473508477
1729114189627666400,13.59766650390625,0.0006108472589403391,0.00022906772210262716,-0.00015271181473508477
1729114189660999400,13.63099951171875,0.00030542362947016954,0.00022906772210262716,-0.00015271181473508477
1729114189694332400,13.66433251953125,0.00022906772210262716,0.00022906772210262716,0.00015271181473508477
1729114189727665400,13.69766552734375,-0.00007635590736754239,0.00015271181473508477,-0.00015271181473508477
1729114189760998400,13.730998291015625,0.0004581354442052543,-0.00038177953683771193,-0.00015271181473508477
1729114189794331400,13.764331298828125,-0.0023670331574976444,0.0010689827613532543,0.00030542362947016954
1729114189827664400,13.797664306640625,-0.01382041908800602,0.0017561858985573053,-0.00038177953683771193
1729114189860997400,13.830997314453125,-0.018936265259981155,0.0016798300202935934,-0.001374406274408102
1729114189894330400,13.864330322265625,-0.04253023862838745,0.005573981441557407,-0.0019088976550847292
1729114189927663600,13.89766357421875,-0.08070819079875946,-0.010766183026134968,0.013973130844533443
1729114189960996600,13.93099658203125,-0.08819106966257095,-0.023059483617544174,0.0038941511884331703
1729114189994329600,13.96432958984375,-0.1432436853647232,-0.04161396995186806,0.02092151902616024
1729114190027662600,13.99766259765625,-0.2829749882221222,0.003970507066696882,-0.0004581354442052543
1729114190060995600,14.03099560546875,-0.5305972099304199,0.008246437646448612,0.005573981441557407
1729114190094328600,14.06432861328125,-0.8299123644828796,0.005650337319821119,0.0008399150101467967
1729114190127661600,14.09766162109375,-1.1343433856964111,-0.009315420873463154,0.008704573847353458
1729114190160994600,14.13099462890625,-1.456870675086975,-0.017409147694706917,0.021837789565324783
1729114190194327600,14.16432763671875,-1.6977735757827759,0.010613471269607544,0.009544488042593002
1729114190227660800,14.197660888671875,-1.8990477323532104,-0.015042114071547985,0.02107422985136509
1729114190260993800,14.230993896484375,-2.0820729732513428,-0.0030542362947016954,0.017027366906404495
1729114190294326800,14.264326904296874,-2.125213861465454,0.0029778804164379835,0.005421269219368696
1729114190327659800,14.29765966796875,-2.04626202583313,-0.0037414394319057465,0.010766183026134968
1729114190360992800,14.33099267578125,-1.9672335386276245,-0.000687203137204051,0.020692450925707817
1729114190394325800,14.36432568359375,-1.8872126340866089,-0.011071606539189816,0.02229592576622963
1729114190427658800,14.39765869140625,-1.7930657863616943,-0.0038941511884331703,0.02145601063966751
1729114190460991700,14.43099169921875,-1.6961700916290283,0.008857285603880882,0.014965757727622986
1729114190494324700,14.46432470703125,-1.641957402229309,0.0051158457063138485,0.0068720318377017975
1729114190527658000,14.497657958984375,-1.5893481969833374,0.011911521665751934,0.0023670331574976444
1729114190560991000,14.530990966796875,-1.5460543632507324,-0.007406522985547781,0.006948387715965509
1729114190594324000,14.564323974609374,-1.5129159688949585,0.0036650835536420345,0.007482878863811493
1729114190627657000,14.597656982421874,-1.5384187698364258,-0.025808297097682953,0.008704573847353458
1729114190660990000,14.630989990234376,-1.580949068069458,0.011682453565299511,0.007635590620338917
1729114190694323000,14.664322998046876,-1.625540852546692,-0.008399149402976036,-0.010689826682209969
1729114190727656000,14.697656005859375,-1.673797845840454,0.005497625097632408,0.00007635590736754239
1729114190760989000,14.730989013671875,-1.7446560859680176,0.005573981441557407,-0.012064233422279358
1729114190794322200,14.764322265625,-1.8268914222717285,0.0423775278031826,-0.011300674639642239
1729114190827655200,14.7976552734375,-1.9234817028045654,-0.019470756873488426,0.011529741808772087
1729114190860988200,14.83098828125,-2.0102219581604004,0.05322006717324257,-0.017561858519911766
1729114190894321200,14.864321044921875,-2.062373161315918,0.02107422985136509,0.01572931744158268
1729114190927654100,14.897654052734374,-2.086883306503296,0.03787253051996231,0.013667707331478596
1729114190960987100,14.930987060546874,-2.0601587295532227,-0.013514995574951172,0.011300674639642239
1729114190994320100,14.964320068359376,-1.9891477823257446,-0.01779092662036419,0.019394399598240852
1729114191027653000,14.997653076171876,-1.897902488708496,-0.016340164467692375,-0.0019088976550847292
1729114191060986000,15.030986083984375,-1.797876238822937,0.007482878863811493,0.027946261689066887
1729114191094319400,15.0643193359375,-1.6948720216751099,0.001985253533348441,0.018554486334323883
1729114191127652400,15.09765234375,-1.6088190078735352,0.0030542362947016954,0.025655584409832954
1729114191160985300,15.1309853515625,-1.5412440299987793,-0.004199574701488018,0.01252236869186163
1729114191194318300,15.164318359375,-1.5168864727020264,0.00007635590736754239,0.012446013279259205
1729114191227651300,15.1976513671875,-1.530554175376892,-0.016034740954637527,0.017409147694706917
1729114191260984300,15.230984375,-1.5473524332046509,0.0038177953101694584,0.028557108715176582
1729114191294317300,15.2643173828125,-1.5801855325698853,-0.020616095513105392,0.025655584409832954
1729114191327650300,15.297650390625,-1.5794219970703125,-0.005268557462841272,0.029167955741286278
1729114191360983300,15.3309833984375,-1.5893481969833374,0.018096350133419037,0.031000498682260513
1729114191394316500,15.364316650390625,-1.6117204427719116,-0.028098974376916885,0.019776180386543274
1729114191427649500,15.3976494140625,-1.621341347694397,-0.015423892997205257,0.03367295488715172
1729114191460982500,15.430982421875,-1.602786898612976,-0.007559234742075205,0.030542362481355667
1729114191494315500,15.4643154296875,-1.6039321422576904,-0.0065666078589856625,0.027793550863862038
1729114191527648500,15.4976484375,-1.637070655822754,-0.01511846948415041,0.019318044185638428
1729114191560981500,15.5309814453125,-1.6589847803115845,0.004581354558467865,0.01710372418165207
1729114191594314500,15.564314453125,-1.670361876487732,-0.007406522985547781,0.02435753494501114
1729114191627647500,15.5976474609375,-1.6579921245574951,-0.030466007068753242,0.024281177669763565
1729114191660980500,15.63098046875,-1.6415756940841675,-0.005803049076348543,0.016187451779842377
1729114191694313700,15.664313720703126,-1.6221048831939697,0.008093725889921188,0.012980503961443901
1729114191727646700,15.697646728515625,-1.6202723979949951,0.005650337319821119,0.008933641016483307
1729114191760979700,15.730979736328125,-1.6352381706237793,0.010308047756552696,0.0067956759594380856
1729114191794312700,15.764312744140625,-1.644553542137146,-0.00022906772210262716,0.010842538438737392
1729114191827645700,15.797645751953125,-1.6306567192077637,0.00129805039614439,0.016187451779842377
1729114191860978700,15.830978759765625,-1.5834687948226929,-0.004199574701488018,0.0261137206107378
1729114191894311700,15.864311767578124,-1.5132976770401,0.00916270911693573,0.0038177953101694584
1729114191927644700,15.897644775390624,-1.4447301626205444,0.015576604753732681,0.025197450071573257
1729114191960977700,15.930977783203126,-1.3163758516311646,0.024510245770215988,-0.004352286923676729
1729114191994311000,15.964310791015626,-0.971247136592865,-0.008246437646448612,0.007177455350756645
1729114192027644000,15.997643798828125,-0.6209262609481812,0.007941014133393764,0.005421269219368696
1729114192060977000,16.030976806640624,-0.2557922899723053,0.032222192734479904,-0.011529741808772087
1729114192094310000,16.064309814453125,-0.015194825828075409,-0.008551862090826035,0.007941014133393764
1729114192127643000,16.097642822265627,0.0459662564098835,0.00862821750342846,0.00030542362947016954
1729114192160976000,16.130975830078125,-0.0068720318377017975,0.014583977870643139,-0.000687203137204051
1729114192194308900,16.164308837890626,-0.03733803704380989,-0.011377030052244663,0.012446013279259205
1729114192227641900,16.197641845703124,0.0030542362947016954,-0.019776180386543274,0.011300674639642239
1729114192260974800,16.230974853515626,0.004734066314995289,-0.004963133949786425,0.007482878863811493
1729114192294308000,16.26430810546875,-0.022601349279284477,0.0015271181473508477,0.00259610079228878
1729114192327641000,16.29764111328125,-0.0165692325681448,-0.00259610079228878,0.0010689827613532543
1729114192360974000,16.33097412109375,-0.0068720318377017975,-0.004046862944960594,-0.00015271181473508477
1729114192394307000,16.36430712890625,-0.016111096367239952,-0.0035123717971146107,0.0015271181473508477
1729114192427640000,16.39764013671875,-0.008246437646448612,-0.005803049076348543,0.001374406274408102
1729114192460973000,16.43097314453125,0.004581354558467865,-0.0004581354442052543,-0.001374406274408102
1729114192494306000,16.46430615234375,-0.0031305921729654074,0.002061609411612153,-0.001985253533348441
1729114192527639000,16.49763916015625,0,0.0018325417768210173,-0.001374406274408102
1729114192560972000,16.530971923828126,0.0029015245381742716,0.004886778071522713,-0.001985253533348441
1729114192594305300,16.56430517578125,-0.0022906772792339325,0.0025197449140250683,-0.001374406274408102
1729114192627638300,16.59763818359375,-0.0012216945178806782,0.0021379655227065086,-0.0007635590736754239
1729114192660971300,16.63097119140625,0.0011453386396169662,0.0017561858985573053,-0.00022906772210262716
1729114192694304300,16.66430419921875,-0.0007635590736754239,-0.000687203137204051,0.00022906772210262716
1729114192727637200,16.69763720703125,-0.00030542362947016954,-0.00038177953683771193,0.000687203137204051
1729114192760970200,16.73097021484375,-0.0007635590736754239,-0.00038177953683771193,0.0004581354442052543
1729114192794303200,16.76430322265625,-0.0008399150101467967,-0.0004581354442052543,0.0004581354442052543
1729114192827636200,16.79763623046875,0.00015271181473508477,0.00022906772210262716,0.00022906772210262716
1729114192860969200,16.83096923828125,-0.00007635590736754239,-0.00015271181473508477,-0.00038177953683771193
1729114192894302500,16.864302490234376,0.0005344913806766272,-0.00022906772210262716,-0.00022906772210262716
1729114192927635500,16.897635498046874,0.0005344913806766272,0.00038177953683771193,-0.0007635590736754239
1729114192960968400,16.930968505859376,-0.00007635590736754239,0.00022906772210262716,-0.0007635590736754239
1729114192994301400,16.964301513671874,0.0005344913806766272,0.00022906772210262716,-0.00015271181473508477
1729114193027634400,16.997634521484375,0.0005344913806766272,0.00022906772210262716,-0.00007635590736754239
1729114193060967400,17.030967529296873,0.0010689827613532543,-0.00030542362947016954,-0.00007635590736754239
1729114193094300400,17.064300537109375,-0.00007635590736754239,0.0008399150101467967,0.00007635590736754239
1729114193127633400,17.09763330078125,-0.00007635590736754239,0.00022906772210262716,-0.00015271181473508477
1729114193160966700,17.130966552734375,0,0.0007635590736754239,-0.00015271181473508477
1729114193194299600,17.164299560546876,-0.00007635590736754239,0.00022906772210262716,-0.00015271181473508477
1729114193227632600,17.197632568359374,0.00030542362947016954,0.000687203137204051,0.00030542362947016954
1729114193260965600,17.230965576171876,-0.00007635590736754239,-0.00007635590736754239,0.00015271181473508477
1729114193294298600,17.264298583984374,0,0.00015271181473508477,-0.00015271181473508477
1729114193327631600,17.297631591796875,0.0005344913806766272,0.00022906772210262716,-0.00015271181473508477
1729114193360964600,17.330964599609374,0.00007635590736754239,0.00022906772210262716,-0.00015271181473508477
1729114193394297600,17.364297607421875,-0.00007635590736754239,0,-0.00015271181473508477
1729114193427630600,17.397630615234377,-0.00007635590736754239,0.0007635590736754239,-0.0004581354442052543
1729114193460963800,17.4309638671875,-0.00007635590736754239,0.00022906772210262716,-0.00015271181473508477
1729114193494296800,17.464296875,-0.00007635590736754239,0.00022906772210262716,-0.00015271181473508477
1729114193527629800,17.4976298828125,0.00022906772210262716,0.00022906772210262716,-0.0004581354442052543
1729114193560962800,17.530962890625,-0.00022906772210262716,0.0004581354442052543,-0.0004581354442052543
1729114193594295800,17.5642958984375,-0.00007635590736754239,0.00022906772210262716,-0.00015271181473508477
1729114193627628800,17.59762890625,0.0005344913806766272,0.00022906772210262716,-0.00015271181473508477
1729114193660961800,17.6309619140625,0.0005344913806766272,0.00022906772210262716,-0.00015271181473508477
1729114193694294800,17.664294677734375,-0.00007635590736754239,0.0004581354442052543,-0.00015271181473508477
1729114193727627800,17.697627685546873,-0.00007635590736754239,0.00022906772210262716,-0.00007635590736754239
1729114193760961000,17.7309609375,-0.00007635590736754239,-0.0016798300202935934,0.005344913341104984
1729114193794294000,17.7642939453125,-0.0029015245381742716,-0.0065666078589856625,0.005955760832875967
1729114193827627000,17.797626953125,-0.0015271181473508477,-0.005268557462841272,0.005955760832875967
1729114193860960000,17.8309599609375,-0.012598725035786629,-0.00022906772210262716,0.006948387715965509
1729114193894293000,17.86429296875,-0.048486001789569855,-0.005650337319821119,0.005650337319821119
1729114193927626000,17.8976259765625,-0.05100574716925621,-0.002061609411612153,0.0032833039294928312
1729114193960959000,17.930958984375,-0.05894676223397255,0.00038177953683771193,-0.008170082233846188
1729114193994292000,17.9642919921875,-0.08261708915233612,-0.007177455350756645,-0.0009926267666742206
1729114194027625000,17.997625,-0.0823880210518837,0.005650337319821119,-0.0031305921729654074
1729114194060958200,18.030958251953123,-0.09918632358312607,0.012446013279259205,-0.0068720318377017975
1729114194094291200,18.064291259765625,-0.11476293206214905,-0.011453386396169662,-0.012598725035786629
1729114194127624200,18.097624267578126,-0.12362021207809448,-0.006337540224194527,-0.024815669283270836
1729114194160957200,18.130957275390625,-0.12255123257637024,0.01252236869186163,0.0007635590736754239
1729114194194290200,18.164290283203126,-0.10674555599689484,0.003970507066696882,0.00015271181473508477
1729114194227623200,18.197623046875,-0.10109522193670273,0.014049487188458443,0.014965757727622986
1729114194260956200,18.2309560546875,-0.10552386194467545,0.02351761981844902,-0.00030542362947016954
1729114194294289200,18.2642890625,-0.1426328420639038,0.005421269219368696,-0.024281177669763565
1729114194327622100,18.2976220703125,-0.15110833942890167,-0.03245126083493233,0.014889402315020561
1729114194360955400,18.330955322265623,-0.12003148347139359,-0.026877280324697495,-0.014889402315020561
1729114194394288400,18.364288330078125,-0.09124530851840973,0.00908635277301073,0.045355409383773804
1729114194427621400,18.397621337890627,-0.06383354216814041,-0.008093725889921188,0.026342788711190224
1729114194460954400,18.430954345703125,-0.043828289955854416,0.011071606539189816,0.05719057470560074
1729114194494287400,18.464287353515626,-0.03703261539340019,-0.014660334214568138,-0.03542914241552353
1729114194527620400,18.497620361328124,-0.005955760832875967,-0.002672456670552492,-0.027411770075559616
1729114194560953300,18.530953369140626,0.009468132629990578,-0.006337540224194527,-0.10781454294919968
1729114194594286300,18.564286376953124,0.013591351918876171,0.010842538438737392,-0.05016583204269409
1729114194627619300,18.597619384765625,0.05238015204668045,0.008475505746901035,-0.06062658876180649
1729114194660952600,18.63095263671875,0.07780666649341583,0.040697697550058365,-0.057496000081300735
1729114194694285600,18.66428564453125,0.10926530510187149,0.052456509321928024,-0.06154286116361618
1729114194727618600,18.69761865234375,0.12438376992940903,0.006642963737249374,-0.09124530851840973
1729114194760951600,18.73095166015625,0.13171394169330597,-0.03290939703583717,-0.07437065243721008
1729114194794284500,18.764284423828126,0.168899267911911,-0.030160583555698395,0.02901524491608143
1729114194827617500,18.797617431640624,0.16584503650665283,-0.036039989441633224,-0.04352286830544472
1729114194860950500,18.830950439453126,0.1907370537519455,-0.027946261689066887,0.034818295389413834
1729114194894283500,18.864283447265624,0.19982340931892395,-0.011682453565299511,0.0012216945178806782
1729114194927616500,18.897616455078126,0.19898349046707153,0.01511846948415041,-0.037567105144262314
1729114194960949800,18.93094970703125,0.20402298867702484,0.03558185324072838,0.10964708030223846
1729114194994282800,18.96428271484375,0.1865374743938446,-0.007635590620338917,0.04253023862838745
1729114195027615700,18.99761572265625,0.1817270666360855,-0.0025197449140250683,0.03504735976457596
1729114195060948700,19.03094873046875,0.18783552944660187,0.001985253533348441,0.06513158977031708
1729114195094281700,19.06428173828125,0.19745637476444244,-0.008017370477318764,0.0035123717971146107
1729114195127614700,19.09761474609375,0.20157960057258606,0.0164165198802948,0.05528167635202408
1729114195160947700,19.13094775390625,0.21387289464473724,0.023746687918901443,0.03390202298760414
1729114195194280700,19.16428076171875,0.21975229680538177,0.06131379306316376,0.01969982497394085
1729114195227613700,19.19761376953125,0.17157171666622162,0.0558161698281765,-0.02023431472480297
1729114195260947000,19.230947021484376,0.15546062588691711,0.033291175961494446,-0.07734853774309158
1729114195294280000,19.264280029296874,0.1336991935968399,0.014965757727622986,0.021837789565324783
1729114195327613000,19.297613037109375,0.11231953650712967,-0.03649812191724777,-0.005344913341104984
1729114195360946000,19.33094580078125,0.10728005319833755,0.0390942245721817,-0.0029015245381742716
1729114195394279000,19.36427880859375,0.09506310522556305,0.049860406666994095,-0.0293970238417387
1729114195427612000,19.39761181640625,0.08276980370283127,0.040697697550058365,-0.05413633957505226
1729114195460945000,19.43094482421875,0.06551336497068405,0.04963133856654167,-0.04214845970273018
1729114195494278000,19.46427783203125,0.055892523378133774,0.02076880633831024,0.02695363573729992
1729114195527611100,19.497611083984374,0.05360184609889984,-0.014583977870643139,0.03061871975660324
1729114195560944000,19.530944091796876,0.04367557913064957,-0.01725643500685692,0.005573981441557407
1729114195594277000,19.564277099609374,0.04718795046210289,-0.032603971660137177,0.030007870867848396
1729114195627610000,19.597610107421875,0.05741964280605316,-0.013362283818423748,0.00259610079228878
1729114195660943000,19.630943115234373,0.04321744292974472,0.05948125198483467,0.050547610968351364
1729114195694276000,19.664276123046875,0.036727190017700195,-0.0626882016658783,0.0009162708884105086
1729114195727609000,19.697609130859377,0.03489464893937111,-0.04718795046210289,0.020845163613557816
1729114195760942000,19.730942138671875,0.03161134570837021,-0.05619794875383377,-0.014736690558493137
1729114195794275000,19.764275146484376,0.0462716780602932,0.013591351918876171,0.08338065445423126
1729114195827608300,19.7976083984375,0.0328330397605896,-0.06055023521184921,-0.01038440316915512
1729114195860941300,19.83094140625,0.04665346071124077,-0.04871506989002228,-0.028633465990424156
1729114195894274300,19.8642744140625,0.0555107444524765,-0.0293970238417387,-0.043981000781059265
1729114195927607300,19.897607177734375,0.043981000781059265,-0.008857285603880882,-0.08559497445821762
1729114195960940300,19.930940185546874,0.03023693896830082,-0.008322793990373611,-0.03512371703982353
1729114195994273300,19.964273193359375,0.0393996499478817,-0.028938889503479004,-0.06635328382253647
1729114196027606300,19.997606201171877,0.03840702027082443,-0.040544986724853516,-0.06100837141275406
1729114196060939300,20.030939208984375,0.05596888065338135,-0.027259059250354767,-0.07406523078680038
1729114196094272300,20.064272216796876,0.07627955079078674,-0.023975754156708717,0.007941014133393764
1729114196127605500,20.09760546875,0.04062134400010109,-0.004123218823224306,-0.013514995574951172
1729114196160938500,20.1309384765625,0.055892523378133774,0.014736690558493137,0.006184828467667103
1729114196194271500,20.164271484375,0.052456509321928024,-0.008704573847353458,-0.02504473738372326
1729114196227604500,20.1976044921875,0.06047387793660164,-0.02176143415272236,0.04352286830544472
1729114196260937500,20.2309375,0.017714571207761765,-0.027411770075559616,0.04291202127933502
1729114196294270500,20.2642705078125,0.03290939703583717,-0.011453386396169662,-0.00786465872079134
1729114196327603500,20.297603515625,0.06352811306715012,-0.012675080448389053,0.03367295488715172
1729114196360936400,20.3309365234375,0.03833066672086716,0.06131379306316376,0.02053973823785782
1729114196394269400,20.36426953125,0.03237490355968475,0.03787253051996231,0.008933641016483307
1729114196427602700,20.397602783203126,0.038788799196481705,0.010842538438737392,0.025350160896778107
1729114196460935700,20.430935791015624,0.04337015375494957,-0.02680092304944992,0.0050394898280501366
1729114196494268700,20.4642685546875,0.043446511030197144,-0.006108472589403391,-0.032756682485342026
1729114196527601700,20.4976015625,0.0364217683672905,0.04619532451033592,-0.01626380905508995
1729114196560934700,20.5309345703125,0.035352785140275955,0.009009997360408306,-0.03749075159430504
1729114196594267600,20.564267578125,0.013285927474498749,-0.022677704691886902,-0.08055548369884491
1729114196627600600,20.5976005859375,-0.007482878863811493,0.02008160389959812,-0.0426829531788826
1729114196660933600,20.63093359375,-0.03558185324072838,0.01572931744158268,-0.029778804630041122
1729114196694266600,20.6642666015625,-0.10964708030223846,0.0656660795211792,0.009849912486970425
1729114196727599900,20.697599853515626,-0.14790138602256775,0.011147962883114815,-0.007482878863811493
1729114196760932900,20.730932861328125,-0.15171918272972107,-0.0065666078589856625,0.03092414326965809
1729114196794265900,20.764265869140626,-0.14874130487442017,0.02038702741265297,0.034665580838918686
1729114196827598800,20.797598876953124,-0.1662268042564392,0.040010496973991394,0.038788799196481705
1729114196860931800,20.830931884765626,-0.1757712960243225,0.0050394898280501366,0.0584886260330677
1729114196894264800,20.864264892578124,-0.16813570261001587,-0.03703261539340019,-0.030313294380903244
1729114196927597800,20.897597900390625,-0.1423274129629135,0.02557922899723053,-0.02557922899723053
1729114196960930800,20.930930908203123,-0.18844637274742126,0.05650337040424347,-0.02748812735080719
1729114196994263800,20.964263916015625,-0.16676130890846252,-0.0018325417768210173,-0.01847812905907631
1729114197027597000,20.99759716796875,-0.12407834827899933,0.002748812548816204,-0.02542651630938053
1729114197060930000,21.030929931640625,-0.1414874941110611,-0.04130854457616806,-0.051463883370161057
1729114197094263000,21.064262939453126,-0.10689827054738998,-0.023059483617544174,-0.015347537584602833
1729114197127596000,21.097595947265624,-0.0925433561205864,-0.005879404954612255,0.018707197159528732
1729114197160929000,21.130928955078126,-0.0689493864774704,-0.03817795217037201,-0.02405211143195629
1729114197194262000,21.164261962890624,-0.08941277116537094,-0.029091600328683853,0.03229855000972748
1729114197227595000,21.197594970703125,-0.04993676394224167,0.010842538438737392,0.009391776286065578
1729114197260928000,21.230927978515624,-0.054365407675504684,0.0525328628718853,0.0016798300202935934
1729114197294261000,21.264260986328125,-0.1298050433397293,0.03565821051597595,0.08055548369884491
1729114197327594200,21.29759423828125,-0.07269082218408585,-0.016492875292897224,-0.03268032893538475
1729114197360927200,21.33092724609375,-0.05963396281003952,0.007788302376866341,0.023899398744106293
1729114197394260200,21.36426025390625,-0.053678203374147415,0.018707197159528732,0.03565821051597595
1729114197427593200,21.39759326171875,-0.05497625470161438,0.02993151545524597,0.02405211143195629
1729114197460926200,21.43092626953125,-0.07841751724481583,0.020005248486995697,0.0716218426823616
1729114197494259200,21.46425927734375,-0.04100312292575836,-0.023746687918901443,-0.0522274412214756
1729114197527592200,21.49759228515625,-0.07124006003141403,0.0231358390301466,0.0325276181101799
1729114197560925200,21.53092529296875,-0.0522274412214756,0.052609220147132874,-0.014583977870643139
1729114197594258200,21.564258056640625,-0.07009471952915192,-0.009849912486970425,-0.06971294432878494
1729114197627591400,21.59759130859375,-0.06902574002742767,0.008170082233846188,0.02008160389959812
1729114197660924400,21.63092431640625,-0.06620056927204132,-0.021150587126612663,-0.05070032179355621
1729114197694257400,21.66425732421875,-0.057496000081300735,0.017714571207761765,0.04825693368911743
1729114197727590400,21.69759033203125,-0.06810946762561798,0.0035123717971146107,0.07047650218009949
1729114197760923400,21.73092333984375,-0.04031591862440109,-0.029626091942191124,0.008170082233846188
1729114197794256400,21.76425634765625,-0.03825430944561958,-0.025273805484175682,0.0017561858985573053
1729114197827589400,21.79758935546875,-0.02214321307837963,0.006719320081174374,0.07177454978227615
1729114197860922400,21.83092236328125,-0.030847785994410515,-0.0295497365295887,0.019241688773036003
1729114197894255600,21.864255615234374,-0.04161396995186806,0.006337540224194527,0.05650337040424347
1729114197927588600,21.897588623046875,-0.041384901851415634,0.001985253533348441,-0.053143709897994995
1729114197960921600,21.930921630859373,-0.04222481697797775,0.03596363216638565,-0.0022143214009702206
1729114197994254600,21.964254638671875,-0.05184566229581833,0.03962871432304382,0.027564482763409615
1729114198027587600,21.997587646484376,-0.043141089379787445,0.02733541466295719,-0.08307522535324097
1729114198060920600,22.030920654296875,-0.03665083646774292,0.031000498682260513,-0.01382041908800602
1729114198094253600,22.064253662109376,-0.0358109213411808,-0.03352024406194687,-0.10857810080051422
1729114198127586600,22.097586669921874,-0.0165692325681448,-0.05772506445646286,0.007635590620338917
1729114198160919600,22.13091943359375,-0.014889402315020561,-0.009773556143045425,-0.03955236077308655
1729114198194252800,22.164252685546874,-0.01954711228609085,0.041232191026210785,0.0017561858985573053
1729114198227585800,22.197585693359375,-0.020310672000050545,0.007711946498602629,-0.02557922899723053
1729114198260918800,22.230918701171873,-0.015271181240677834,-0.039857782423496246,0.051082100719213486
1729114198294251800,22.264251708984375,-0.011529741808772087,-0.051082100719213486,0.023212196305394173
1729114198327584800,22.297584716796877,-0.014431266114115715,0.015958385542035103,0.03489464893937111
1729114198360917800,22.330917724609375,-0.009009997360408306,0.027411770075559616,0.021226942539215088
1729114198394250800,22.364250732421876,-0.006642963737249374,0.01046075951308012,0.051463883370161057
1729114198427583700,22.397583740234374,-0.010002624243497849,-0.024586603045463562,-0.03573456406593323
1729114198460916700,22.430916748046876,-0.004046862944960594,-0.02504473738372326,0.027259059250354767
1729114198494250000,22.46425,-0.010995250195264816,-0.027793550863862038,0.00519220158457756
1729114198527583000,22.4975830078125,-0.002748812548816204,-0.011377030052244663,0.015194825828075409
1729114198560916000,22.530916015625,0.0005344913806766272,-0.004352286923676729,0.0016034740256145597
1729114198594249000,22.5642490234375,-0.007788302376866341,0.007330167107284069,0.0068720318377017975
1729114198627582000,22.59758203125,-0.013667707331478596,0.0024433890357613564,0.008170082233846188
1729114198660915000,22.6309150390625,-0.00908635277301073,-0.0038941511884331703,0.010155336000025272
1729114198694248000,22.664248046875,0.010689826682209969,0.004275931045413017,0.005803049076348543
1729114198727581000,22.697580810546874,-0.010766183026134968,0.004046862944960594,0.0019088976550847292
1729114198760914000,22.730913818359376,0.002672456670552492,-0.008933641016483307,0.0037414394319057465
1729114198794247200,22.7642470703125,0.003359660040587187,0.00022906772210262716,0
1729114198827580200,22.797580078125,-0.004352286923676729,0.0010689827613532543,-0.00007635590736754239
1729114198860913200,22.8309130859375,-0.0025197449140250683,-0.006261184345930815,-0.00015271181473508477
1729114198894246100,22.86424609375,-0.00259610079228878,-0.00030542362947016954,-0.0007635590736754239
1729114198927579100,22.8975791015625,0,0.0012216945178806782,-0.001985253533348441
1729114198960912100,22.930912109375,-0.0023670331574976444,0.00022906772210262716,-0.001374406274408102
1729114198994245000,22.9642451171875,-0.007788302376866341,0.0022906772792339325,-0.001374406274408102
1729114199027578000,22.997578125,-0.004886778071522713,-0.0012216945178806782,0.0004581354442052543
1729114199060911000,23.0309111328125,0.007101099472492933,0.00022906772210262716,-0.00038177953683771193
1729114199094244400,23.064244384765626,-0.0023670331574976444,0.0009162708884105086,-0.0007635590736754239
1729114199127577300,23.097577392578124,-0.0035123717971146107,-0.00007635590736754239,-0.00015271181473508477
1729114199160910300,23.130910400390626,0.0032833039294928312,0.0014507622690871358,-0.0004581354442052543
1729114199194243300,23.164243408203124,-0.000687203137204051,0.00007635590736754239,0
1729114199227576300,23.197576416015625,0.0005344913806766272,0.0009162708884105086,-0.00015271181473508477
1729114199260909300,23.230909423828123,0.0009162708884105086,0.0005344913806766272,-0.00015271181473508477
1729114199294242300,23.2642421875,0.0008399150101467967,0.0008399150101467967,-0.0007635590736754239
1729114199327575300,23.2975751953125,0.0015271181473508477,0.0008399150101467967,-0.00030542362947016954
1729114199360908300,23.330908203125,0.0017561858985573053,0.0008399150101467967,-0.000687203137204051
1729114199394241500,23.364241455078126,0.0012216945178806782,0.0007635590736754239,-0.00015271181473508477
1729114199427574500,23.397574462890624,-0.000687203137204051,-0.00007635590736754239,0.00022906772210262716
1729114199460907500,23.430907470703126,0.00007635590736754239,-0.00015271181473508477,0.00030542362947016954
1729114199494240500,23.464240478515624,0.0010689827613532543,0.00022906772210262716,-0.00015271181473508477
1729114199527573500,23.497573486328125,0,0.00022906772210262716,-0.00015271181473508477
1729114199560906500,23.530906494140623,-0.00038177953683771193,0.00022906772210262716,-0.00015271181473508477
1729114199594239500,23.564239501953125,0.0005344913806766272,0.00007635590736754239,-0.0005344913806766272
1729114199627572500,23.597572509765627,-0.00007635590736754239,0.00030542362947016954,-0.000687203137204051
1729114199660905500,23.630905517578125,-0.00007635590736754239,0.00038177953683771193,-0.00015271181473508477
1729114199694238700,23.66423876953125,0.0005344913806766272,0.0006108472589403391,-0.00015271181473508477
1729114199727571700,23.69757177734375,-0.00030542362947016954,0.0006108472589403391,-0.00038177953683771193
1729114199760904700,23.73090478515625,-0.00007635590736754239,-0.00015271181473508477,-0.000687203137204051
1729114199794237700,23.76423779296875,0.0004581354442052543,0.00030542362947016954,-0.00015271181473508477
1729114199827570700,23.79757080078125,-0.00007635590736754239,0.000687203137204051,-0.00038177953683771193
1729114199860903700,23.830903564453124,-0.00007635590736754239,0.0011453386396169662,-0.00015271181473508477
1729114199894236700,23.864236572265625,-0.0009926267666742206,0.00038177953683771193,-0.0007635590736754239
1729114199927569700,23.897569580078127,-0.007024743594229221,0.0014507622690871358,-0.00015271181473508477
1729114199960902700,23.930902587890625,-0.013362283818423748,0.0014507622690871358,-0.0007635590736754239
1729114199994236000,23.96423583984375,-0.024815669283270836,0.000687203137204051,0.00007635590736754239
1729114200027569000,23.99756884765625,-0.03978142887353897,0.00007635590736754239,0.0029015245381742716
1729114200060902000,24.03090185546875,-0.039323292672634125,0.007559234742075205,-0.004275931045413017
1729114200094235000,24.06423486328125,-0.05199837312102318,-0.010078979656100273,-0.001985253533348441
1729114200127568000,24.09756787109375,-0.0942995473742485,-0.007635590620338917,0.002748812548816204
1729114200160900900,24.13090087890625,-0.19974705576896667,0.0068720318377017975,0.0016798300202935934
1729114200194233900,24.16423388671875,-0.37444937229156494,0.003359660040587187,0.004657710436731577
1729114200227566800,24.19756689453125,-0.6233696341514587,0.007024743594229221,0.007253811229020357
1729114200260899800,24.23089990234375,-0.8909206986427307,0.0064902519807219505,0.00992626789957285
1729114200294233000,24.264233154296875,-1.1824475526809692,-0.0011453386396169662,0.016187451779842377
1729114200327566000,24.297566162109376,-1.430451512336731,0.002061609411612153,0.0164165198802948
1729114200360899000,24.330899169921874,-1.6553961038589478,-0.007559234742075205,0.019088976085186005
1729114200394232000,24.364232177734376,-1.7771073579788208,-0.010231691412627697,0.015576604753732681
1729114200427565000,24.39756494140625,-1.7795507907867432,-0.005726693198084831,0.018019994720816612
1729114200460898000,24.43089794921875,-1.738242268562317,0.0007635590736754239,0.018096350133419037
1729114200494231000,24.46423095703125,-1.6487531661987305,-0.008475505746901035,0.022906772792339325
1729114200527564000,24.49756396484375,-1.5739243030548096,-0.017714571207761765,0.02641914412379265
1729114200560897300,24.530897216796873,-1.4859622716903687,-0.011071606539189816,0.020616095513105392
1729114200594230300,24.564230224609375,-1.427320957183838,0.013514995574951172,0.0022906772792339325
1729114200627563300,24.597563232421876,-1.3860124349594116,-0.00129805039614439,0.013896775431931019
1729114200660896300,24.630896240234375,-1.3469945192337036,0.0025197449140250683,0.012369656935334206
1729114200694229200,24.664229248046876,-1.3614258766174316,0.006108472589403391,0.015576604753732681
1729114200727562200,24.697562255859374,-1.3919682502746582,-0.0021379655227065086,0.015652960166335106
1729114200760895200,24.730895263671876,-1.4421340227127075,0.007406522985547781,0.013744063675403595
1729114200794228200,24.764228271484374,-1.5152065753936768,0.000687203137204051,0.012904148548841476
1729114200827561200,24.797561279296875,-1.5799564123153687,0.001985253533348441,0.010918894782662392
1729114200860894500,24.83089453125,-1.6422628164291382,0.012980503961443901,0.011147962883114815
1729114200894227500,24.8642275390625,-1.6497457027435303,0.005497625097632408,0.015500249341130257
1729114200927560400,24.897560546875,-1.6821969747543335,0.011300674639642239,0.005497625097632408
1729114200960893400,24.9308935546875,-1.7070890665054321,-0.0022906772792339325,0.017714571207761765
1729114200994226400,24.964226318359376,-1.7480921745300293,0.004581354558467865,0.011911521665751934
1729114201027559400,24.997559326171874,-1.760538101196289,0.008170082233846188,0.017561858519911766
1729114201060892400,25.030892333984376,-1.764890432357788,0.007559234742075205,0.015347537584602833
1729114201094225400,25.064225341796874,-1.7610726356506348,0.005879404954612255,0.013514995574951172
1729114201127558400,25.097558349609375,-1.7461068630218506,0.006642963737249374,0.01511846948415041
1729114201160891600,25.1308916015625,-1.7314465045928955,0.0019088976550847292,0.009849912486970425
1729114201194224600,25.164224609375,-1.712357521057129,-0.0006108472589403391,0.00007635590736754239
1729114201227557600,25.1975576171875,-1.7114412784576416,0.010918894782662392,0.013285927474498749
1729114201260890600,25.230890625,-1.6977735757827759,-0.0004581354442052543,0.02664821222424507
1729114201294223600,25.2642236328125,-1.6954829692840576,0.009391776286065578,0.019088976085186005
1729114201327556600,25.297556640625,-1.6729578971862793,0.003359660040587187,0.0165692325681448
1729114201360889600,25.3308896484375,-1.6797536611557007,0.0029778804164379835,0.017409147694706917
1729114201394222600,25.36422265625,-1.6738742589950562,-0.0022906772792339325,0.013438640162348747
1729114201427555600,25.3975556640625,-1.6946430206298828,0.0051158457063138485,0.009009997360408306
1729114201460888800,25.430888916015626,-1.6865493059158325,-0.011911521665751934,0.016187451779842377
1729114201494221800,25.464221923828124,-1.6986135244369507,-0.006337540224194527,0.017714571207761765
1729114201527554800,25.497554931640625,-1.693497657775879,0.0035887276753783226,0.013362283818423748
1729114201560887800,25.5308876953125,-1.7033475637435913,-0.0034360159188508987,0.01626380905508995
1729114201594220800,25.564220703125,-1.6994534730911255,0.012598725035786629,0.00129805039614439
1729114201627553800,25.5975537109375,-1.693497657775879,-0.00259610079228878,0.022372281178832054
1729114201660886800,25.63088671875,-1.684869408607483,-0.009849912486970425,0.021226942539215088
1729114201694219800,25.6642197265625,-1.6954829692840576,0.0068720318377017975,0.010689826682209969
1729114201727552800,25.697552734375,-1.6944139003753662,0.004504998680204153,0.012446013279259205
1729114201760886000,25.730885986328126,-1.6976208686828613,0.0015271181473508477,0.014583977870643139
1729114201794219000,25.764218994140624,-1.703805685043335,-0.0006108472589403391,0.01779092662036419
1729114201827552000,25.797552001953125,-1.703576683998108,0.00916270911693573,0.016645587980747223
1729114201860885000,25.830885009765623,-1.6929631233215332,0.012064233422279358,0.016798298805952072
1729114201894218000,25.864218017578125,-1.6033977270126343,-0.0030542362947016954,0.02076880633831024
1729114201927551000,25.897551025390626,-1.3068313598632812,-0.0012216945178806782,0.014736690558493137
1729114201960884000,25.930884033203125,-0.8267053961753845,0.010002624243497849,0.004657710436731577
1729114201994217000,25.964217041015626,-0.3811686933040619,0.00786465872079134,0.0035887276753783226
1729114202027550000,25.997550048828124,-0.01916533336043358,0.009239064529538155,-0.004810422193259001
1729114202060883200,26.03088330078125,0.07811209559440613,-0.002061609411612153,0.002672456670552492
1729114202094216200,26.06421630859375,0.011071606539189816,0.0028251686599105597,0.0022906772792339325
1729114202127549200,26.097549072265625,-0.024815669283270836,-0.0035123717971146107,0.0014507622690871358
1729114202160882200,26.130882080078123,-0.00038177953683771193,-0.0017561858985573053,0.000687203137204051
1729114202194215200,26.164215087890625,0.011606098152697086,0.0014507622690871358,-0.0010689827613532543
1729114202227548200,26.197548095703127,-0.0036650835536420345,0.00015271181473508477,-0.00038177953683771193
1729114202260881200,26.230881103515625,-0.004657710436731577,0.00022906772210262716,-0.00007635590736754239
1729114202294214100,26.264214111328126,0.003359660040587187,0.00007635590736754239,-0.00015271181473508477
1729114202327547100,26.297547119140624,-0.00129805039614439,0,0.0004581354442052543
1729114202360880400,26.33088037109375,-0.0015271181473508477,0.00038177953683771193,-0.0010689827613532543
1729114202394213400,26.36421337890625,0.0016798300202935934,0.00030542362947016954,-0.00015271181473508477
1729114202427546400,26.39754638671875,-0.00038177953683771193,0.00022906772210262716,-0.00015271181473508477
1729114202460879400,26.43087939453125,-0.00038177953683771193,0.00022906772210262716,0.00015271181473508477
1729114202494212400,26.46421240234375,-0.00007635590736754239,0.00022906772210262716,-0.00015271181473508477
1729114202527545300,26.49754541015625,-0.00007635590736754239,0.00022906772210262716,-0.00015271181473508477
1729114202560878300,26.53087841796875,-0.0005344913806766272,0.00022906772210262716,0
1729114202594211300,26.56421142578125,0.00022906772210262716,0.00022906772210262716,-0.0004581354442052543
1729114202627544300,26.59754443359375,0.00038177953683771193,-0.00015271181473508477,0.00030542362947016954
1729114202660877600,26.630877685546874,-0.000687203137204051,0.0008399150101467967,-0.00015271181473508477
1729114202694210600,26.66421044921875,0.00038177953683771193,0.0008399150101467967,-0.00022906772210262716
1729114202727543600,26.69754345703125,-0.0004581354442052543,0.0006108472589403391,0.00015271181473508477
1729114202760876500,26.73087646484375,-0.0005344913806766272,0.0004581354442052543,-0.0007635590736754239
1729114202794209500,26.76420947265625,0.0004581354442052543,0.00022906772210262716,-0.00007635590736754239
1729114202827542500,26.79754248046875,-0.00007635590736754239,0.00022906772210262716,0
1729114202860875500,26.83087548828125,0.00022906772210262716,-0.00007635590736754239,-0.00015271181473508477
1729114202894208500,26.86420849609375,-0.0005344913806766272,-0.00015271181473508477,-0.00015271181473508477
1729114202927541800,26.897541748046876,-0.000687203137204051,-0.00030542362947016954,-0.00015271181473508477
1729114202960874800,26.930874755859374,-0.00022906772210262716,0.00022906772210262716,-0.00015271181473508477
1729114202994207700,26.964207763671876,-0.00007635590736754239,0.00022906772210262716,-0.00015271181473508477
1729114203027540700,26.997540771484374,0.00015271181473508477,0.0004581354442052543,-0.00015271181473508477
1729114203060873700,27.030873779296876,-0.00007635590736754239,0.00022906772210262716,0.00038177953683771193
1729114203094206700,27.064206787109374,-0.00007635590736754239,0.00015271181473508477,-0.00015271181473508477
1729114203127539700,27.097539794921875,-0.00007635590736754239,0.0006108472589403391,-0.0005344913806766272
1729114203160872700,27.130872802734373,0.00030542362947016954,0.00022906772210262716,-0.0005344913806766272
1729114203194205700,27.164205810546875,0,0.00007635590736754239,0.00022906772210262716
1729114203227539000,27.1975390625,0.0010689827613532543,-0.0015271181473508477,0.0017561858985573053
1729114203260872000,27.230871826171875,-0.002061609411612153,-0.0034360159188508987,0.008017370477318764
1729114203294205000,27.264204833984376,-0.01122431829571724,-0.004199574701488018,0.010689826682209969
1729114203327538000,27.297537841796874,0.0019088976550847292,0,0.007711946498602629
1729114203360871000,27.330870849609376,-0.024128466844558716,0.00038177953683771193,0.007788302376866341
1729114203394204000,27.364203857421874,-0.0331384651362896,0.0029015245381742716,-0.0009162708884105086
1729114203427537000,27.397536865234375,-0.04810422286391258,-0.006642963737249374,0.00038177953683771193
1729114203460870000,27.430869873046873,-0.06070294603705406,-0.0036650835536420345,0.010766183026134968
1729114203494203000,27.464202880859375,-0.07681404054164886,0.00015271181473508477,0.012675080448389053
1729114203527536000,27.4975361328125,-0.06589514762163162,0.0325276181101799,-0.004046862944960594
1729114203560869000,27.530869140625,-0.08750387281179428,0.006642963737249374,0.014431266114115715
1729114203594202000,27.5642021484375,-0.09116895496845245,-0.013209572061896324,0.016340164467692375
1729114203627535000,27.59753515625,-0.10132429003715515,-0.025197450071573257,0.047111593186855316
1729114203660868000,27.6308681640625,-0.12239851802587509,-0.018783552572131157,0.005268557462841272
1729114203694201000,27.664201171875,-0.1149156391620636,-0.02229592576622963,0.02092151902616024
1729114203727534000,27.6975341796875,-0.10407309979200363,-0.02405211143195629,0.020463382825255394
1729114203760867000,27.7308671875,-0.08047912269830704,0.004963133949786425,0.0456608310341835
1729114203794200000,27.764199951171875,-0.09330692142248154,-0.020157959312200546,-0.06062658876180649
1729114203827533300,27.797533203125,-0.0713164210319519,0.03687990456819534,-0.02176143415272236
1729114203860866300,27.8308662109375,-0.06734590977430344,-0.0050394898280501366,-0.013438640162348747
1729114203894199300,27.86419921875,-0.0528382882475853,0.01122431829571724,0.03374931216239929
1729114203927532300,27.8975322265625,-0.062306419014930725,-0.0015271181473508477,-0.032756682485342026
1729114203960865300,27.930865234375,-0.059023115783929825,-0.003359660040587187,-0.020157959312200546
1729114203994198300,27.9641982421875,-0.07925742864608765,0.013438640162348747,-0.030542362481355667
1729114204027531300,27.99753125,-0.09781191498041153,0.036192700266838074,0.03771981969475746
1729114204060864300,28.0308642578125,-0.12613995373249054,-0.0293970238417387,-0.007101099472492933
1729114204094197200,28.064197265625,-0.10659284889698029,-0.008093725889921188,0.0293970238417387
1729114204127530500,28.097530517578125,-0.0784938707947731,0.005726693198084831,0.018630841746926308
1729114204160863500,28.130863525390627,-0.08559497445821762,0.0032833039294928312,0.007177455350756645
1729114204194196500,28.164196533203125,-0.08658760040998459,0.01252236869186163,0.017180079594254494
1729114204227529500,28.197529541015626,-0.08017370104789734,-0.011071606539189816,0.020005248486995697
1729114204260862500,28.230862548828124,-0.08246438205242157,-0.025502873584628105,-0.03512371703982353
1729114204294195500,28.264195556640626,-0.06872031837701797,-0.03687990456819534,-0.0019088976550847292
1729114204327528400,28.297528564453124,-0.053525492548942566,0.05291464552283287,0.018249060958623886
1729114204360861400,28.330861328125,-0.05337277799844742,-0.00022906772210262716,-0.054518118500709534
1729114204394194400,28.3641943359375,-0.0620773509144783,-0.019394399598240852,0.027946261689066887
1729114204427527700,28.397527587890625,-0.05154023692011833,-0.0361163429915905,0.010155336000025272
1729114204460860700,28.430860595703123,-0.050394900143146515,-0.005573981441557407,0.047646086663007736
1729114204494193700,28.464193603515625,-0.0689493864774704,0.01038440316915512,0.03145863488316536
1729114204527526700,28.497526611328126,-0.08162446320056915,-0.00862821750342846,0.0623827762901783
1729114204560859600,28.530859619140625,-0.10025530308485031,-0.01954711228609085,0.042453885078430176
1729114204594192600,28.564192626953126,-0.11506835371255875,-0.017409147694706917,0.042453885078430176
1729114204627525600,28.597525634765624,-0.09284878522157669,-0.016492875292897224,0.019928891211748123
1729114204660858600,28.630858642578126,-0.09009996801614761,0.04443913698196411,0.017027366906404495
1729114204694191600,28.664191650390624,-0.10735640674829483,0.015271181240677834,0.07215633243322372
1729114204727524900,28.69752490234375,-0.09910997003316879,-0.009773556143045425,0.050547610968351364
1729114204760857900,28.73085791015625,-0.11751174181699753,-0.006642963737249374,0.0006108472589403391
1729114204794190800,28.76419091796875,-0.10758547484874725,0.02832804247736931,-0.009773556143045425
1729114204827523800,28.79752392578125,-0.1256818175315857,0.0856713280081749,0.04146125912666321
1729114204860856800,28.83085693359375,-0.11987877637147903,0.0492495596408844,0.007711946498602629
1729114204894189800,28.86418994140625,-0.12873606383800507,0.0021379655227065086,-0.03336753323674202
1729114204927522800,28.897522705078124,-0.1205659806728363,-0.030313294380903244,-0.031229566782712936
1729114204960855800,28.930855712890626,-0.1122431829571724,0.013973130844533443,-0.03443651273846626
1729114204994188800,28.964188720703124,-0.08826743066310883,0.01252236869186163,-0.07330167293548584
1729114205027522000,28.99752197265625,-0.08292251825332642,0.007177455350756645,0.016721943393349648
1729114205060855000,29.03085498046875,-0.06788039952516556,-0.018249060958623886,-0.036727190017700195
1729114205094188000,29.06418798828125,-0.07841751724481583,-0.009391776286065578,-0.05123481526970863
1729114205127521000,29.09752099609375,-0.035505495965480804,0.010613471269607544,-0.04062134400010109
1729114205160854000,29.13085400390625,-0.07650861889123917,-0.0064902519807219505,0.024586603045463562
1729114205194187000,29.16418701171875,-0.054365407675504684,0.01794363744556904,-0.002061609411612153
1729114205227520000,29.19752001953125,-0.05199837312102318,-0.013514995574951172,-0.05329642444849014
1729114205260853000,29.23085302734375,-0.04023956134915352,0.013362283818423748,0.03955236077308655
1729114205294186200,29.264186279296876,-0.04016320779919624,0.0008399150101467967,0.015652960166335106
1729114205327519200,29.297519287109374,-0.051922015845775604,-0.013591351918876171,0.03237490355968475
1729114205360852200,29.330852294921876,-0.035200074315071106,-0.02351761981844902,0.04184303805232048
1729114205394185200,29.364185302734374,-0.04291202127933502,-0.008093725889921188,0.06856760382652283
1729114205427518200,29.397518310546875,-0.03161134570837021,0.014507622458040714,0.004428642801940441
1729114205460851200,29.430851318359377,-0.055052608251571655,0.02023431472480297,0.05467082932591438
1729114205494184200,29.46418408203125,-0.04909684881567955,0.013973130844533443,-0.011606098152697086
1729114205527517200,29.49751708984375,-0.04016320779919624,0.0165692325681448,0.05810684710741043
1729114205560850200,29.53085009765625,-0.03687990456819534,-0.04008685052394867,-0.04879142343997955
1729114205594183400,29.564183349609376,-0.019088976085186005,-0.0011453386396169662,-0.0029778804164379835
1729114205627516400,29.597516357421874,-0.035352785140275955,0.008475505746901035,-0.005803049076348543
1729114205660849400,29.630849365234376,-0.022754060104489326,-0.0004581354442052543,-0.01901262067258358
1729114205694182400,29.664182373046874,-0.04772244393825531,-0.011529741808772087,-0.07971556484699249
1729114205727515400,29.697515380859375,-0.027182703837752342,-0.03504735976457596,-0.014660334214568138
1729114205760848400,29.730848388671873,-0.022677704691886902,-0.010689826682209969,-0.03771981969475746
1729114205794181400,29.764181396484375,-0.03023693896830082,-0.005650337319821119,-0.03176405653357506
1729114205827514400,29.797514404296876,-0.03061871975660324,-0.02229592576622963,-0.017332790419459343
1729114205860847400,29.830847412109375,-0.044362783432006836,-0.01710372418165207,-0.03573456406593323
1729114205894180600,29.8641806640625,-0.038788799196481705,-0.021532366052269936,-0.04085041210055351
1729114205927513600,29.897513671875,-0.040544986724853516,-0.04527905210852623,0.027411770075559616
1729114205960846600,29.9308466796875,-0.045889899134635925,-0.0814717561006546,0.010308047756552696
1729114205994179600,29.9641796875,-0.03237490355968475,-0.03649812191724777,-0.019241688773036003
1729114206027512600,29.9975126953125,-0.02680092304944992,-0.019623467698693275,0.02504473738372326
1729114206060845600,30.030845458984373,0.010155336000025272,-0.011453386396169662,-0.024662958458065987
1729114206094178600,30.064178466796875,-0.022372281178832054,0.006108472589403391,0.0014507622690871358
1729114206127511600,30.097511474609377,-0.03695625811815262,0.005573981441557407,0.039857782423496246
1729114206160844500,30.130844482421875,-0.07291989028453827,-0.012598725035786629,-0.005573981441557407
1729114206194177800,30.164177734375,-0.04787515476346016,0.0036650835536420345,-0.0295497365295887
1729114206227510800,30.1975107421875,-0.09307785332202911,0.000687203137204051,0.019394399598240852
1729114206260843800,30.23084375,-0.0584886260330677,-0.0016798300202935934,-0.013973130844533443
1729114206294176800,30.2641767578125,-0.03405473381280899,-0.019088976085186005,-0.02748812735080719
1729114206327509800,30.297509765625,-0.030389651656150818,-0.0068720318377017975,-0.02053973823785782
1729114206360842800,30.3308427734375,-0.004657710436731577,0.0011453386396169662,-0.040392275899648666
1729114206394175700,30.36417578125,-0.0328330397605896,0.04695888236165047,-0.02886253222823143
1729114206427508700,30.3975087890625,-0.032222192734479904,0.06421531736850739,0.039476003497838974
1729114206460841700,30.430841796875,-0.036192700266838074,0.02107422985136509,-0.07834116369485855
1729114206494175000,30.464175048828125,-0.02008160389959812,0.12041326612234116,0.02695363573729992
1729114206527508000,30.497508056640626,-0.04489727318286896,0.0823880210518837,-0.023288551717996597
1729114206560841000,30.530841064453124,-0.04840964451432228,0.03199312463402748,0.009315420873463154
1729114206594174000,30.564174072265626,-0.03840702027082443,-0.021150587126612663,0.0656660795211792
1729114206627507000,30.5975068359375,-0.04421006888151169,-0.019776180386543274,-0.004428642801940441
1729114206660840000,30.63083984375,-0.035200074315071106,0.046729814261198044,0.009544488042593002
1729114206694173000,30.6641728515625,-0.03130592033267021,0.050394900143146515,0.06383354216814041
1729114206727506000,30.697505859375,-0.04337015375494957,0.006261184345930815,0.0261137206107378
1729114206760839000,30.7308388671875,-0.03703261539340019,-0.01885990984737873,0.06276455521583557
1729114206794172200,30.764172119140625,-0.02664821222424507,-0.04046862944960594,-0.014278554357588291
1729114206827505200,30.797505126953126,-0.022677704691886902,0.04062134400010109,0.019088976085186005
1729114206860838100,30.830838134765624,-0.045889899134635925,0.00007635590736754239,0.05375456064939499
1729114206894171100,30.864171142578126,-0.04512634128332138,-0.027564482763409615,0.006108472589403391
1729114206927504100,30.897504150390624,-0.030313294380903244,-0.031153209507465363,-0.025273805484175682
1729114206960837000,30.930837158203126,-0.03504735976457596,0.008322793990373611,-0.0065666078589856625
1729114206994170000,30.964170166015624,-0.017027366906404495,0.0038177953101694584,0.008704573847353458
1729114207027503000,30.997503173828125,-0.018554486334323883,-0.020157959312200546,-0.013133215717971325
1729114207060836000,31.030836181640623,-0.036727190017700195,-0.019928891211748123,0.08582404255867004
1729114207094169300,31.06416943359375,-0.011300674639642239,-0.03749075159430504,-0.062993623316288
1729114207127502300,31.09750244140625,-0.011835165321826935,-0.0023670331574976444,-0.014202198944985867
1729114207160835300,31.13083544921875,-0.022219568490982056,-0.015194825828075409,0.01695101149380207
1729114207194168300,31.164168212890626,-0.022601349279284477,0.0022906772792339325,0.0065666078589856625
1729114207227501300,31.197501220703124,-0.01901262067258358,0.0011453386396169662,-0.054365407675504684
1729114207260834300,31.230834228515626,-0.027793550863862038,-0.005421269219368696,-0.061084724962711334
1729114207294167300,31.264167236328124,-0.042606595903635025,-0.04046862944960594,-0.030007870867848396
1729114207327500300,31.297500244140625,-0.04016320779919624,-0.05459447205066681,-0.05008947476744652
1729114207360833300,31.330833251953123,-0.03352024406194687,-0.02886253222823143,-0.08055548369884491
1729114207394166500,31.36416650390625,-0.034818295389413834,0.018630841746926308,-0.10300412029027939
1729114207427499500,31.39749951171875,-0.028404397889971733,0.023975754156708717,-0.09643751382827759
1729114207460832500,31.43083251953125,-0.010231691412627697,0.028480753302574158,0.0016034740256145597
1729114207494165500,31.46416552734375,-0.018783552572131157,0.016798298805952072,-0.04787515476346016
1729114207527498500,31.49749853515625,-0.02053973823785782,-0.008475505746901035,0.004275931045413017
1729114207560831500,31.53083154296875,-0.019776180386543274,0.00007635590736754239,0.029473381116986275
1729114207594164500,31.56416455078125,-0.01763821393251419,-0.010078979656100273,0.04489727318286896
1729114207627497500,31.59749755859375,-0.00259610079228878,-0.007253811229020357,0.1143047958612442
1729114207660830700,31.630830810546875,-0.0010689827613532543,-0.01885990984737873,0.04100312292575836
1729114207694163700,31.664163818359373,0.0029015245381742716,0.012140588834881783,0.041919391602277756
1729114207727496700,31.69749658203125,-0.004810422193259001,0.039857782423496246,0.05535803362727165
1729114207760829700,31.73082958984375,-0.008551862090826035,0.004504998680204153,0.03764346241950989
1729114207794162700,31.76416259765625,-0.0008399150101467967,0.022524992004036903,0.040010496973991394
1729114207827495700,31.79749560546875,-0.0009162708884105086,0.03298575058579445,-0.022372281178832054
1729114207860828700,31.83082861328125,-0.022601349279284477,0.0561215914785862,0.037567105144262314
1729114207894161700,31.86416162109375,-0.01046075951308012,0.055739812552928925,0.009697199799120426
1729114207927494700,31.89749462890625,-0.013896775431931019,0.06658235192298889,-0.02832804247736931
1729114207960828000,31.930827880859376,-0.009620844386518002,0.06192464008927345,0.004504998680204153
1729114207994161000,31.964160888671874,-0.020005248486995697,0.03374931216239929,-0.03764346241950989
1729114208027494000,31.997493896484375,-0.004963133949786425,-0.052609220147132874,0.04756972938776016
1729114208060827000,32.03082690429687,0.007253811229020357,-0.03749075159430504,0.03771981969475746
1729114208094160000,32.064159912109375,0.00908635277301073,-0.0009926267666742206,0.031382277607917786
1729114208127492900,32.097492919921876,0.012216945178806782,-0.018096350133419037,0.029626091942191124
1729114208160825900,32.13082592773438,-0.0018325417768210173,0.023746687918901443,-0.019928891211748123
1729114208194158800,32.16415893554687,0.013514995574951172,-0.03458922728896141,0.021226942539215088
1729114208227491800,32.197491943359374,0.016492875292897224,-0.020692450925707817,0.020157959312200546
1729114208260825000,32.2308251953125,0.006642963737249374,-0.004352286923676729,-0.04085041210055351
1729114208294158000,32.26415795898438,0.0035887276753783226,0.001985253533348441,0.013591351918876171
1729114208327491000,32.29749096679687,0.00992626789957285,-0.003970507066696882,-0.032756682485342026
1729114208360824000,32.33082397460937,0.004963133949786425,-0.006719320081174374,-0.012216945178806782
1729114208394157000,32.364156982421875,0.009391776286065578,-0.004046862944960594,-0.03374931216239929
1729114208427490000,32.39748999023438,-0.008704573847353458,-0.0036650835536420345,-0.011606098152697086
1729114208460823000,32.43082299804688,0.006184828467667103,0.010002624243497849,-0.037948887795209885
1729114208494156000,32.46415600585937,0.008017370477318764,0.0034360159188508987,-0.011377030052244663
1729114208527489000,32.497489013671874,0.005879404954612255,-0.015576604753732681,0.007635590620338917
1729114208560822300,32.530822265625,0.0019088976550847292,-0.012675080448389053,0.004581354558467865
1729114208594155300,32.5641552734375,-0.0014507622690871358,-0.008093725889921188,0.007024743594229221
1729114208627488300,32.59748828125,0.007788302376866341,-0.01779092662036419,0.011682453565299511
1729114208660821200,32.6308212890625,0.0024433890357613564,-0.014507622458040714,0.011071606539189816
1729114208694154200,32.664154296875,-0.00786465872079134,-0.007024743594229221,0.008170082233846188
1729114208727487200,32.6974873046875,0.0029015245381742716,-0.0064902519807219505,0.005421269219368696
1729114208760820200,32.7308203125,-0.0025197449140250683,-0.004734066314995289,0.004963133949786425
1729114208794153200,32.7641533203125,-0.005268557462841272,-0.0025197449140250683,0.0029015245381742716
1729114208827486200,32.797486328125,0.00015271181473508477,-0.0014507622690871358,0.0016034740256145597
1729114208860819500,32.8308193359375,0.0022906772792339325,0.00015271181473508477,-0.0005344913806766272
1729114208894152400,32.86415234375,-0.000687203137204051,0.0019088976550847292,-0.0009162708884105086
1729114208927485400,32.8974853515625,0.00015271181473508477,0.0016034740256145597,-0.0007635590736754239
1729114208960818400,32.930818359375,0.0009162708884105086,0.00022906772210262716,0
1729114208994151400,32.9641513671875,-0.000687203137204051,0.00022906772210262716,0.0004581354442052543
1729114209027484400,32.997484375,-0.00030542362947016954,0.00022906772210262716,-0.0005344913806766272
1729114209060817400,33.0308173828125,0.00022906772210262716,0.00022906772210262716,-0.00015271181473508477
1729114209094150400,33.064150390625,-0.000687203137204051,0.00038177953683771193,-0.00015271181473508477
1729114209127483400,33.0974833984375,-0.00015271181473508477,0.0008399150101467967,-0.00015271181473508477
1729114209160816600,33.13081665039063,0.00007635590736754239,0.0008399150101467967,-0.0005344913806766272
1729114209194149600,33.16414965820312,0.0005344913806766272,0.0008399150101467967,-0.00038177953683771193
1729114209227482600,33.197482666015624,0.00038177953683771193,0.0008399150101467967,-0.00015271181473508477
1729114209260815600,33.230815673828126,-0.00007635590736754239,0.0008399150101467967,-0.0007635590736754239
1729114209294148600,33.26414868164063,0.0008399150101467967,0.0006108472589403391,-0.00015271181473508477
1729114209327481600,33.29748168945312,0.0005344913806766272,0.0005344913806766272,-0.0007635590736754239
1729114209360814600,33.33081469726562,-0.0012216945178806782,0.0014507622690871358,-0.0007635590736754239
1729114209394147600,33.364147705078125,-0.0037414394319057465,0.0014507622690871358,-0.0007635590736754239
1729114209427480600,33.39748046875,-0.004581354558467865,0.0014507622690871358,-0.001374406274408102
1729114209460813800,33.43081372070313,-0.01588202826678753,0.003970507066696882,-0.0016034740256145597
1729114209494146800,33.46414672851562,-0.01901262067258358,0.0036650835536420345,-0.001985253533348441
1729114209527479800,33.497479736328124,-0.03634541109204292,-0.0004581354442052543,-0.00022906772210262716
1729114209560812800,33.530812744140626,-0.06306997686624527,0.007635590620338917,-0.0025197449140250683
1729114209594145800,33.56414575195313,-0.09361234307289124,0.0065666078589856625,-0.008017370477318764
1729114209627478800,33.59747875976562,-0.1579040139913559,-0.012980503961443901,0.005803049076348543
1729114209660811800,33.63081176757812,-0.29412296414375305,0.004046862944960594,0.004886778071522713
1729114209694144800,33.664144775390625,-0.5100574493408203,-0.00259610079228878,0.003970507066696882
1729114209727477800,33.69747778320313,-0.7721109390258789,0.007711946498602629,0.005726693198084831
1729114209760811000,33.73081103515625,-0.9960628151893616,0.0022906772792339325,0.007024743594229221
1729114209794144000,33.76414404296875,-1.156944751739502,0.004963133949786425,0.008704573847353458
1729114209827477000,33.79747705078125,-1.2820920944213867,-0.007788302376866341,0.017561858519911766
1729114209860810000,33.83081005859375,-1.3456201553344727,0.02107422985136509,0.003359660040587187
1729114209894143000,33.86414306640625,-1.3731846809387207,0.0130568603053689,0.013514995574951172
1729114209927476000,33.89747607421875,-1.3768497705459595,0.013285927474498749,0.013438640162348747
1729114209960809000,33.93080908203125,-1.3574553728103638,0.009697199799120426,0.015194825828075409
1729114209994142000,33.964141845703125,-1.3403515815734863,0.002748812548816204,0.015271181240677834
1729114210027475000,33.99747485351563,-1.3042352199554443,0.005421269219368696,0.012980503961443901
1729114210060808200,34.03080810546875,-1.2685006856918335,0.0064902519807219505,0.016340164467692375
1729114210094141200,34.06414111328125,-1.2429214715957642,0.015423892997205257,0.015271181240677834
1729114210127474200,34.09747412109375,-1.2271157503128052,0.0064902519807219505,0.016111096367239952
1729114210160807200,34.13080712890625,-1.2516260147094727,0.0008399150101467967,0.016721943393349648
1729114210194140200,34.16414013671875,-1.2827792167663574,0.007024743594229221,0.01847812905907631
1729114210227473200,34.19747314453125,-1.306144118309021,0.019776180386543274,0.01817270554602146
1729114210260806100,34.23080615234375,-1.352568507194519,-0.005573981441557407,0.013896775431931019
1729114210294139100,34.26413916015625,-1.3851724863052368,-0.0010689827613532543,0.010689826682209969
1729114210327472400,34.29747241210937,-1.4155621528625488,0.0015271181473508477,0.015042114071547985
1729114210360805400,34.33080541992187,-1.4571760892868042,0.007559234742075205,0.015194825828075409
1729114210394138400,34.364138427734375,-1.495583176612854,0.012140588834881783,0.020997874438762665
1729114210427471400,34.397471435546876,-1.5414730310440063,-0.0037414394319057465,0.020616095513105392
1729114210460804400,34.43080444335938,-1.576902151107788,0.005803049076348543,0.020463382825255394
1729114210494137300,34.46413745117187,-1.5914098024368286,0.011835165321826935,0.023059483617544174
1729114210527470300,34.49747021484375,-1.598358154296875,0.012216945178806782,0.021990500390529633
1729114210560803300,34.53080322265625,-1.604161262512207,0.008322793990373611,0.01779092662036419
1729114210594136300,34.56413623046875,-1.6179053783416748,-0.00015271181473508477,0.020157959312200546
1729114210627469600,34.59746948242187,-1.6338636875152588,0.005421269219368696,0.014125842601060867
1729114210660802600,34.63080249023437,-1.64165198802948,0.004581354558467865,0.019088976085186005
1729114210694135600,34.664135498046875,-1.6350853443145752,0.002061609411612153,0.021914144977927208
1729114210727468500,34.697468505859376,-1.6283661127090454,-0.015194825828075409,0.02993151545524597
1729114210760801500,34.73080151367188,-1.6281369924545288,0.00015271181473508477,0.019394399598240852
1729114210794134500,34.76413452148437,-1.6176762580871582,-0.0165692325681448,0.021914144977927208
1729114210827467500,34.797467529296874,-1.618516206741333,-0.022219568490982056,0.01748550310730934
1729114210860800500,34.830800537109376,-1.6366125345230103,-0.010002624243497849,0.018249060958623886
1729114210894133500,34.86413354492188,-1.6685292720794678,-0.00908635277301073,0.022754060104489326
1729114210927466800,34.897466796875,-1.6931922435760498,-0.004657710436731577,0.015576604753732681
1729114210960799700,34.9307998046875,-1.7174733877182007,-0.008704573847353458,0.017027366906404495
1729114210994132700,34.9641328125,-1.7425944805145264,0.0032833039294928312,0.015652960166335106
1729114211027465700,34.9974658203125,-1.7623707056045532,-0.012675080448389053,0.020157959312200546
1729114211060798700,35.030798828125,-1.7779473066329956,0.004734066314995289,0.007941014133393764
1729114211094131700,35.06413159179687,-1.7819178104400635,-0.01382041908800602,0.009239064529538155
1729114211127464700,35.097464599609374,-1.7826050519943237,0.0038177953101694584,0.009315420873463154
1729114211160797700,35.130797607421876,-1.7740530967712402,-0.004428642801940441,0.01038440316915512
1729114211194130700,35.16413061523438,-1.7651195526123047,-0.0017561858985573053,0.011987877078354359
1729114211227464000,35.1974638671875,-1.7669520378112793,-0.005726693198084831,0.010613471269607544
1729114211260797000,35.230796875,-1.7635923624038696,0.00908635277301073,0.004123218823224306
1729114211294130000,35.2641298828125,-1.7709989547729492,0.005268557462841272,0.011453386396169662
1729114211327463000,35.297462890625,-1.7945165634155273,0.0016034740256145597,0.006413896102458239
1729114211360796000,35.3307958984375,-1.806428074836731,0.01175880990922451,0.0016798300202935934
1729114211394129000,35.36412890625,-1.8191031217575073,0.007177455350756645,0.0029778804164379835
1729114211427462000,35.3974619140625,-1.8144453763961792,0.0018325417768210173,0.016798298805952072
1729114211460795000,35.430794921875,-1.809635043144226,0.009009997360408306,-0.0017561858985573053
1729114211494127900,35.4641279296875,-1.7829104661941528,-0.0032833039294928312,0.005803049076348543
1729114211527461000,35.497461181640624,-1.7898588180541992,0.012751436792314053,-0.000687203137204051
1729114211560794000,35.530794189453125,-1.80100679397583,0.005421269219368696,0.00862821750342846
1729114211594127000,35.56412719726563,-1.8197903633117676,0.03565821051597595,0.0035887276753783226
1729114211627460000,35.59746020507812,-1.7900115251541138,0.025808297097682953,0.009620844386518002
1729114211660793000,35.63079296875,-1.5864466428756714,0.02053973823785782,0.011529741808772087
1729114211694126000,35.6641259765625,-1.1226608753204346,0.01382041908800602,0.0014507622690871358
1729114211727459000,35.697458984375,-0.6072585582733154,0.005421269219368696,0.005344913341104984
1729114211760792000,35.7307919921875,-0.10697462409734726,0.003970507066696882,-0.00259610079228878
1729114211794125000,35.764125,0.10941801220178604,0.0065666078589856625,-0.0037414394319057465
1729114211827458300,35.797458251953124,0.02283041551709175,0.012598725035786629,0.004657710436731577
1729114211860791300,35.830791259765626,-0.04428642615675926,-0.006337540224194527,-0.005344913341104984
1729114211894124300,35.86412426757813,0.008399149402976036,-0.0016034740256145597,0.0011453386396169662
1729114211927457300,35.89745727539062,0.00908635277301073,0.0035887276753783226,-0.0016034740256145597
1729114211960790300,35.93079028320312,-0.011300674639642239,-0.0029778804164379835,-0.00030542362947016954
1729114211994123300,35.964123291015625,0.005955760832875967,0.0021379655227065086,0.00030542362947016954
1729114212027456300,35.997456298828126,-0.0008399150101467967,-0.00038177953683771193,-0.001374406274408102
1729114212060789200,36.03078930664063,-0.0015271181473508477,-0.0004581354442052543,0.00129805039614439
1729114212094122200,36.06412231445312,0.0015271181473508477,0.0016798300202935934,-0.0007635590736754239
1729114212127455500,36.09745556640625,-0.00022906772210262716,-0.001374406274408102,0.0009926267666742206
1729114212160788500,36.13078857421875,-0.00022906772210262716,0.0008399150101467967,-0.0006108472589403391
1729114212194121500,36.16412158203125,0.00015271181473508477,-0.0007635590736754239,0.00022906772210262716
1729114212227454500,36.19745434570312,0.00015271181473508477,0.00022906772210262716,0.00022906772210262716
1729114212260787500,36.23078735351562,-0.0006108472589403391,-0.00022906772210262716,0
1729114212294120400,36.264120361328125,0.0004581354442052543,-0.00030542362947016954,-0.00007635590736754239
1729114212327453400,36.29745336914063,0.00007635590736754239,-0.00038177953683771193,-0.0005344913806766272
1729114212360786400,36.33078637695313,-0.00007635590736754239,-0.00007635590736754239,-0.00015271181473508477
1729114212394119400,36.36411938476562,-0.00022906772210262716,-0.00038177953683771193,-0.00015271181473508477
1729114212427452700,36.39745263671875,-0.00015271181473508477,-0.00038177953683771193,-0.00015271181473508477
1729114212460785700,36.43078564453125,0.00030542362947016954,0.000687203137204051,-0.00015271181473508477
1729114212494118700,36.46411865234375,0.0005344913806766272,0.0006108472589403391,-0.00015271181473508477
1729114212527451600,36.49745166015625,0.00038177953683771193,-0.00022906772210262716,-0.00015271181473508477
1729114212560784600,36.53078466796875,-0.000687203137204051,0.00022906772210262716,-0.00015271181473508477
1729114212594117600,36.56411767578125,0.00030542362947016954,0.00022906772210262716,-0.00015271181473508477
1729114212627450600,36.59745068359375,-0.00038177953683771193,0.0008399150101467967,-0.00015271181473508477
1729114212660783600,36.63078369140625,-0.00007635590736754239,0.0008399150101467967,-0.00015271181473508477
1729114212694116900,36.664116943359375,0.0005344913806766272,0.0008399150101467967,-0.00015271181473508477
1729114212727449900,36.697449951171876,-0.00022906772210262716,0.00038177953683771193,-0.00015271181473508477
1729114212760782800,36.73078295898438,-0.00007635590736754239,0.0006108472589403391,-0.00015271181473508477
1729114212794115800,36.76411572265625,0.00038177953683771193,0.00022906772210262716,0.0004581354442052543
1729114212827448800,36.79744873046875,0.0004581354442052543,0.00022906772210262716,-0.00007635590736754239
1729114212860781800,36.83078173828125,-0.00007635590736754239,0.00022906772210262716,0
1729114212894114800,36.86411474609375,-0.00007635590736754239,0.0006108472589403391,-0.00015271181473508477
1729114212927447800,36.89744775390625,0.0005344913806766272,0.00007635590736754239,-0.00038177953683771193
1729114212960780800,36.93078076171875,0.0005344913806766272,0.00022906772210262716,-0.00015271181473508477
1729114212994114000,36.964114013671875,0,-0.00022906772210262716,0.00022906772210262716
1729114213027447000,36.997447021484376,0.0014507622690871358,-0.0016798300202935934,0.002672456670552492
1729114213060780000,37.03078002929688,-0.0016798300202935934,-0.0017561858985573053,0.004123218823224306
1729114213094113000,37.06411303710937,-0.0028251686599105597,-0.0016034740256145597,0.007253811229020357
1729114213127446000,37.097446044921874,0.009391776286065578,0.004123218823224306,-0.0009162708884105086
1729114213160779000,37.130779052734376,-0.008093725889921188,0.00022906772210262716,-0.004046862944960594
1729114213194112000,37.16411206054688,-0.01122431829571724,-0.0035887276753783226,-0.0035123717971146107
1729114213227445000,37.19744506835937,-0.022906772792339325,-0.0065666078589856625,-0.005879404954612255
1729114213260778000,37.23077807617187,-0.038483377546072006,0.006261184345930815,-0.00908635277301073
1729114213294111200,37.264111328125,-0.03649812191724777,0.010155336000025272,-0.004734066314995289
1729114213327444200,37.2974443359375,-0.05291464552283287,0.00519220158457756,-0.008246437646448612
1729114213360777200,37.33077709960938,-0.04886778071522713,0.008322793990373611,-0.008399149402976036
1729114213394110200,37.36411010742187,-0.05459447205066681,-0.011835165321826935,0.011529741808772087
1729114213427443200,37.397443115234374,-0.06314633786678314,-0.027182703837752342,0.014278554357588291
1729114213460776200,37.430776123046876,-0.053983625024557114,-0.013973130844533443,0.012827792204916477
1729114213494109200,37.46410913085938,-0.0689493864774704,-0.016645587980747223,0.01710372418165207
1729114213527442200,37.49744213867187,-0.08254073560237885,-0.007253811229020357,0.02993151545524597
1729114213560775200,37.53077514648437,-0.0925433561205864,-0.015652960166335106,0.012904148548841476
1729114213594108400,37.5641083984375,-0.08047912269830704,-0.027793550863862038,0.043828289955854416
1729114213627441400,37.59744140625,-0.07834116369485855,-0.055052608251571655,0.05268557742238045
1729114213660774400,37.6307744140625,-0.08368607610464096,-0.06429167091846466,0.021685076877474785
1729114213694107400,37.664107421875,-0.07307260483503342,0.004734066314995289,-0.021837789565324783
1729114213727440400,37.6974404296875,-0.055587101727724075,0.014049487188458443,0.02076880633831024
1729114213760773400,37.7307734375,-0.050929389894008636,-0.01046075951308012,0.029778804630041122
1729114213794106400,37.7641064453125,-0.05207473039627075,-0.030847785994410515,0.023212196305394173
1729114213827439400,37.797439453125,-0.04413371533155441,0.007253811229020357,0.01748550310730934
1729114213860772400,37.8307724609375,-0.025197450071573257,0.02733541466295719,-0.007635590620338917
1729114213894105600,37.86410571289063,-0.036039989441633224,0.006948387715965509,0.041232191026210785
1729114213927438600,37.8974384765625,-0.04375193640589714,0.028404397889971733,0.053525492548942566
1729114213960771600,37.930771484375,-0.024968381971120834,0.01969982497394085,0.03840702027082443
1729114213994104600,37.9641044921875,-0.02435753494501114,0.04359922185540199,0.033291175961494446
1729114214027437600,37.9974375,-0.03008422814309597,0.03077143058180809,0.027182703837752342
1729114214060770600,38.0307705078125,-0.026342788711190224,0.03855973482131958,0.07666133344173431
1729114214094103600,38.064103515625,-0.0025197449140250683,0.049860406666994095,0.07024743407964706
1729114214127436500,38.0974365234375,-0.04023956134915352,0.062153708189725876,-0.00916270911693573
1729114214160769500,38.13076953125,-0.03390202298760414,0.058870404958724976,0.009544488042593002
1729114214194102800,38.16410278320313,-0.025655584409832954,0.025655584409832954,0.005879404954612255
1729114214227435800,38.19743579101562,-0.03764346241950989,0.043828289955854416,-0.06055023521184921
1729114214260768800,38.23076879882812,-0.04405735805630684,0.04230117425322533,-0.04253023862838745
1729114214294101800,38.264101806640625,-0.04558447748422623,-0.01382041908800602,-0.08582404255867004
1729114214327434800,38.297434814453126,-0.05864133685827255,0.01710372418165207,-0.10346225649118423
1729114214360767700,38.33076782226563,-0.05062396824359894,0.004886778071522713,-0.08574768155813217
1729114214394100700,38.36410083007812,-0.052609220147132874,0.007711946498602629,-0.04695888236165047
1729114214427433700,38.397433837890624,-0.04184303805232048,0.02420482225716114,-0.05344913527369499
1729114214460766700,38.4307666015625,-0.04375193640589714,0.025961007922887802,-0.041232191026210785
1729114214494100000,38.46409985351563,-0.04367557913064957,-0.0164165198802948,-0.012140588834881783
1729114214527433000,38.49743286132812,-0.05024218559265137,-0.052609220147132874,-0.025884652510285378
1729114214560766000,38.53076586914062,-0.023899398744106293,-0.032603971660137177,0.017561858519911766
1729114214594099000,38.564098876953125,-0.030007870867848396,-0.0293970238417387,-0.024128466844558716
1729114214627432000,38.597431884765626,-0.024968381971120834,0.004275931045413017,-0.027564482763409615
1729114214660765000,38.63076489257813,-0.02076880633831024,-0.014278554357588291,-0.0014507622690871358
1729114214694098000,38.66409790039062,-0.01954711228609085,0.021990500390529633,-0.021303297951817513
1729114214727431000,38.697430908203124,-0.01901262067258358,0.004199574701488018,0.03382566571235657
1729114214760764000,38.730763916015626,-0.0261137206107378,-0.015805672854185104,-0.010995250195264816
1729114214794097200,38.76409716796875,-0.0018325417768210173,-0.028557108715176582,0.02664821222424507
1729114214827430100,38.79743017578125,-0.008704573847353458,-0.019928891211748123,0.016874656081199646
1729114214860763100,38.83076318359375,-0.02710634656250477,0.0010689827613532543,0.07139277458190918
1729114214894096100,38.86409619140625,-0.02023431472480297,0.002061609411612153,-0.012827792204916477
1729114214927429000,38.89742919921875,-0.011911521665751934,-0.008017370477318764,0.0390942245721817
1729114214960762000,38.93076220703125,-0.0028251686599105597,0.0029778804164379835,0.03527642786502838
1729114214994095000,38.96409521484375,-0.01588202826678753,-0.011071606539189816,0.02764083817601204
1729114215027428000,38.997427978515624,-0.013514995574951172,-0.014507622458040714,0.11002886295318604
1729114215060761300,39.03076123046875,-0.015652960166335106,0.01763821393251419,0.01695101149380207
1729114215094094300,39.06409423828125,-0.019318044185638428,-0.0021379655227065086,0.00030542362947016954
1729114215127427300,39.09742724609375,-0.016874656081199646,-0.013744063675403595,0.04085041210055351
1729114215160760300,39.13076025390625,-0.013133215717971325,0.017332790419459343,0.0010689827613532543
1729114215194093300,39.16409326171875,-0.010842538438737392,0.03352024406194687,-0.033443886786699295
1729114215227426300,39.19742626953125,-0.018630841746926308,0.005344913341104984,-0.036192700266838074
1729114215260759300,39.23075927734375,-0.03077143058180809,-0.00259610079228878,-0.030695075169205666
1729114215294092300,39.26409228515625,-0.031076854094862938,-0.03061871975660324,-0.0390942245721817
1729114215327425300,39.29742529296875,-0.0029015245381742716,0.022219568490982056,-0.012216945178806782
1729114215360758500,39.33075854492188,-0.012675080448389053,0.013591351918876171,-0.05741964280605316
1729114215394091500,39.36409155273437,-0.005650337319821119,0.008780929259955883,-0.011529741808772087
1729114215427424500,39.397424560546874,0.012446013279259205,0.055739812552928925,0.016187451779842377
1729114215460757500,39.430757568359375,0.02817532978951931,-0.013896775431931019,0.013209572061896324
1729114215494090500,39.46409057617188,0.047646086663007736,0.008551862090826035,0.012751436792314053
1729114215527423500,39.49742358398437,0.0752105712890625,-0.0009926267666742206,0.00030542362947016954
1729114215560756500,39.53075659179687,0.10155335813760757,0.0012216945178806782,0.025197450071573257
1729114215594089500,39.56408935546875,0.07994463294744492,-0.02542651630938053,0.012980503961443901
1729114215627422500,39.59742236328125,0.11575555801391602,-0.0016034740256145597,0.0012216945178806782
1729114215660755700,39.63075561523438,0.12026055157184601,0.03687990456819534,-0.02504473738372326
1729114215694088700,39.66408862304687,0.1361425817012787,0.001374406274408102,0.008933641016483307
1729114215727421700,39.697421630859374,0.1492757946252823,-0.039857782423496246,-0.011987877078354359
1729114215760754700,39.730754638671876,0.17180079221725464,-0.0028251686599105597,0.06032116711139679
1729114215794087700,39.76408764648438,0.194325789809227,0.020310672000050545,0.005421269219368696
1729114215827420700,39.79742065429687,0.1743205338716507,-0.04512634128332138,0.006948387715965509
1729114215860753700,39.83075366210937,0.1740151196718216,-0.05154023692011833,0.03886515647172928
1729114215894086700,39.864086669921875,0.1805817186832428,-0.011606098152697086,-0.059710320085287094
