time,seconds_elapsed,z,y,x
1729114709796172300,0.05217236328125,0,0,0
1729114709834106600,0.090106689453125,-0.25616931915283203,0.037664979696273804,-0.009614571928977966
1729114709872040700,0.128040771484375,0.16088294982910156,-0.024792231619358063,0.02438504993915558
1729114709909975000,0.16597509765625,-0.16314315795898438,0.028427772223949432,-0.0042106956243515015
1729114709947909400,0.203909423828125,0.0984201431274414,-0.01567360758781433,0.012540087103843689
1729114709985843700,0.24184375,-0.07726573944091797,0.006572343409061432,-0.0032117068767547607
1729114710023777800,0.27977783203125,0.056715965270996094,-0.007974401116371155,-0.0012299567461013794
1729114710061712100,0.317712158203125,-0.05426979064941406,0.007540903985500336,-0.010618984699249268
1729114710099646500,0.355646484375,0.023370742797851562,-0.017451323568820953,-0.019974738359451294
1729114710137580800,0.393580810546875,-0.020856857299804688,0.0035671964287757874,-0.0013523697853088379
1729114710175515100,0.43151513671875,0.01719379425048828,0.010234639048576355,0.005397766828536987
1729114710213449200,0.46944921875,-0.006396293640136719,0.007176145911216736,-0.006943836808204651
1729114710251383600,0.507383544921875,-0.005331993103027344,0.0029019489884376526,-0.002478867769241333
1729114710289318000,0.54531787109375,-0.0068950653076171875,0.0024988725781440735,0.0024875402450561523
1729114710327252200,0.583252197265625,0.0032701492309570312,0.0025989487767219543,-0.009288489818572998
1729114710365186600,0.6211865234375,-0.005251884460449219,0.0022341758012771606,-0.010982602834701538
1729114710403121000,0.659120849609375,-0.01636981964111328,0.011347353458404541,0.0025802701711654663
1729114710441055000,0.697054931640625,0.0028591156005859375,-0.0032874420285224915,-0.015760451555252075
1729114710478989300,0.7349892578125,0.0030527114868164062,-0.003416508436203003,0.018884986639022827
1729114710516923600,0.772923583984375,-0.0064487457275390625,0.0011340603232383728,-0.008981287479400635
1729114710554858000,0.81085791015625,-0.0037441253662109375,0.007936827838420868,0.007237955927848816
1729114710592792000,0.8487919921875,-0.00308990478515625,-0.017022401094436646,-0.0016595721244812012
1729114710630726400,0.886726318359375,0.00616455078125,0.013475224375724792,0.00995887815952301
1729114710668660700,0.92466064453125,0.003993034362792969,-0.005322352051734924,-0.015837252140045166
1729114710706595000,0.962594970703125,-0.00988006591796875,0.01489027589559555,0.007002547383308411
1729114710744529400,1.000529296875,0.004250526428222656,-0.001885872334241867,-0.004758045077323914
1729114710782463700,1.038463623046875,-0.012164115905761719,-0.0015227198600769043,0.004347264766693115
1729114710820397800,1.076397705078125,0.024446487426757812,-0.004215456545352936,0.002677604556083679
1729114710858332200,1.114332275390625,-0.017261505126953125,-0.0015848949551582336,-0.004117608070373535
1729114710896266500,1.1522666015625,0.008594512939453125,-0.008178703486919403,0.007430210709571838
1729114710934200800,1.190200927734375,-0.014193534851074219,-0.005500972270965576,-0.004001051187515259
1729114710972135200,1.22813525390625,0.013968467712402344,0.0016262233257293701,-0.010680198669433594
1729114711010069200,1.2660693359375,-0.0142974853515625,0.0036024972796440125,-0.008346512913703918
1729114711048003600,1.304003662109375,0.0065898895263671875,-0.016851551830768585,-0.013424992561340332
1729114711085938000,1.34193798828125,-0.004673957824707031,0.008602969348430634,-0.006290599703788757
1729114711123872300,1.379872314453125,0.006882667541503906,-0.0011012405157089233,0.005240723490715027
1729114711161806600,1.417806640625,-0.00453948974609375,0.0010974779725074768,-0.010816141963005066
1729114711199741000,1.455740966796875,0.018560409545898438,0.002800535410642624,-0.001522943377494812
1729114711237675300,1.49367529296875,0.0013532638549804688,-0.009245365858078003,-0.012561291456222534
1729114711275609300,1.531609375,-0.0028142929077148438,-0.013075217604637146,-0.007474467158317566
1729114711313543700,1.569543701171875,-0.0011281967163085938,-0.0029475241899490356,-0.00957496464252472
1729114711351478000,1.60747802734375,-0.0048999786376953125,-0.006851889193058014,0.006608784198760986
1729114711389412400,1.645412353515625,0.010827064514160156,-0.005937628448009491,0.004005253314971924
1729114711427346700,1.6833466796875,-0.0005168914794921875,0.012736648321151733,0.008071362972259521
1729114711465280800,1.72128076171875,0.0036878585815429688,0.003747604787349701,0.015180632472038269
1729114711503215000,1.759215087890625,-0.0027399063110351562,0.003030739724636078,-0.015130937099456787
1729114711541149400,1.7971494140625,-0.009351730346679688,-0.008790403604507446,-0.014157846570014954
1729114711579083800,1.835083740234375,-0.007462501525878906,-0.00412847101688385,-0.01163172721862793
1729114711617018000,1.87301806640625,0.0016336441040039062,0.0009905695915222168,0.011365562677383423
1729114711654952400,1.910952392578125,0.0040912628173828125,0.005454160273075104,-0.009550392627716064
1729114711692886800,1.94888671875,-0.005272865295410156,-0.00020901113748550415,0.006319195032119751
1729114711730820900,1.98682080078125,0.0015783309936523438,0.005015574395656586,-0.0030372291803359985
1729114711768755200,2.024755126953125,0.0015354156494140625,-0.002130061388015747,0.003925979137420654
1729114711806689500,2.062689453125,0.012425422668457031,-0.008756071329116821,-0.007321611046791077
1729114711844624000,2.100623779296875,-0.02245616912841797,0.0029354840517044067,-0.009798690676689148
1729114711882558200,2.13855810546875,0.0059719085693359375,-0.0019830018281936646,0.013870194554328918
1729114711920492500,2.176492431640625,0.0008020401000976562,0.0024442821741104126,0.003971666097640991
1729114711958426600,2.214426513671875,-0.01297760009765625,0.009255893528461456,0.01735895872116089
1729114711996361000,2.25236083984375,-0.0032873153686523438,-0.00011673569679260254,-0.014900937676429749
1729114712034295300,2.29029541015625,-0.0001678466796875,0.00006604194641113281,0.008437231183052063
1729114712072229600,2.328229736328125,-0.00417327880859375,-0.00478169322013855,-0.006149366497993469
1729114712110164000,2.3661640625,-0.0020875930786132812,0.0023229047656059265,0.019122183322906494
1729114712148098300,2.404098388671875,0.0029115676879882812,0.011051356792449951,0.005129590630531311
1729114712186032600,2.44203271484375,-0.0045623779296875,-0.005679048597812653,0.004184454679489136
1729114712223966700,2.479966796875,-0.008843421936035156,0.0014021024107933044,-0.007185518741607666
1729114712261901000,2.517901123046875,-0.004119873046875,0.0016620606184005737,0.000009000301361083984
1729114712299835400,2.55583544921875,0.004866600036621094,-0.0005966350436210632,0.011574715375900269
1729114712337769700,2.593769775390625,-0.005957603454589844,0.004260912537574768,-0.0003659874200820923
1729114712375704000,2.6317041015625,0.012022972106933594,-0.0050838664174079895,0.004312753677368164
1729114712413638400,2.669638427734375,-0.010127067565917969,-0.0044664740562438965,0.0019517838954925537
1729114712451572500,2.707572509765625,0.010187149047851562,0.00020319968461990356,0.004635632038116455
1729114712489506800,2.7455068359375,-0.005484580993652344,-0.007149003446102142,-0.005305737257003784
1729114712527441200,2.783441162109375,0.0039014816284179688,-0.006585240364074707,0.0014221221208572388
1729114712565375500,2.82137548828125,0.0018472671508789062,-0.004323989152908325,-0.0027572065591812134
1729114712603309800,2.859309814453125,0.008052825927734375,0.009756624698638916,0.002553984522819519
1729114712641244200,2.897244140625,0.0030374526977539062,-0.00446213036775589,0.0021550506353378296
1729114712679176700,2.9351767578125,0.0024585723876953125,0.0032104626297950745,0.0020259469747543335
1729114712717111000,2.973111083984375,0.00018596649169921875,-0.0016137287020683289,-0.011305555701255798
1729114712755045400,3.01104541015625,-0.00033283233642578125,-0.0017720162868499756,0.0006491094827651978
1729114712792979700,3.048979736328125,0.00008106231689453125,0.009872160851955414,-0.0038485825061798096
1729114712830913800,3.086913818359375,-0.0048236846923828125,0.0049248263239860535,0.0007630139589309692
1729114712868848000,3.12484814453125,0.004741668701171875,0.0017845779657363892,0.005668818950653076
1729114712906782500,3.162782470703125,-0.00695037841796875,-0.00478845089673996,-0.003902122378349304
1729114712944716800,3.200716796875,-0.00632476806640625,0.011719278991222382,0.0013533830642700195
1729114712982651100,3.238651123046875,0.004530906677246094,-0.0004198923707008362,-0.0032333284616470337
1729114713020585500,3.27658544921875,0.0047931671142578125,-0.009996965527534485,0.0012160837650299072
1729114713058519800,3.314519775390625,-0.009418487548828125,0.0017904341220855713,-0.003107324242591858
1729114713096454100,3.3524541015625,0.009688377380371094,0.0015799552202224731,-0.009726271033287048
1729114713134388200,3.39038818359375,0.00814056396484375,-0.014902576804161072,-0.014146953821182251
1729114713172322600,3.428322509765625,-0.0114593505859375,0.001552388072013855,-0.0019701719284057617
1729114713210257000,3.4662568359375,0.013519287109375,-0.007784031331539154,-0.023284584283828735
1729114713248191200,3.504191162109375,-0.011307716369628906,0.010503686964511871,-0.00660434365272522
1729114713286125600,3.54212548828125,0.01767444610595703,-0.003291115164756775,-0.022517770528793335
1729114713324060000,3.580059814453125,-0.00295257568359375,0.003634542226791382,-0.006059110164642334
1729114713361994200,3.617994140625,-0.003261566162109375,-0.0051534175872802734,0.0027198046445846558
1729114713399928600,3.655928466796875,-0.011953353881835938,0.0014604851603507996,-0.004395216703414917
1729114713437862700,3.693862548828125,0.009059906005859375,-0.0031890422105789185,-0.006841152906417847
1729114713475797000,3.731796875,-0.014406204223632812,-0.003158479928970337,-0.0024611204862594604
1729114713513731300,3.7697314453125,0.0004634857177734375,-0.0004915818572044373,-0.00935220718383789
1729114713551665700,3.807665771484375,-0.012401580810546875,0.0015331059694290161,0.00018531084060668945
1729114713589600000,3.84560009765625,0.01983928680419922,-0.012024596333503723,0.008573293685913086
1729114713627534300,3.883534423828125,0.00023746490478515625,-0.0024883896112442017,0.0012220293283462524
1729114713665468700,3.92146875,0.013775825500488281,0.0045103952288627625,0.005241304636001587
1729114713703403000,3.959403076171875,-0.0029115676879882812,-0.011752687394618988,-0.010389059782028198
1729114713741337000,3.997337158203125,0.006323814392089844,-0.0026400387287139893,-0.0034926533699035645
1729114713779271400,4.035271484375,-0.015085220336914062,0.007269911468029022,0.003433734178543091
1729114713817205800,4.073205810546875,-0.005293846130371094,0.007314920425415039,0.003850281238555908
1729114713855140000,4.11114013671875,-0.0024614334106445312,-0.004978828132152557,0.010990604758262634
1729114713893074400,4.149074462890625,0.008733749389648438,0.004431687295436859,0.014718368649482727
1729114713931008800,4.1870087890625,-0.0027627944946289062,0.004288926720619202,0.0029695630073547363
1729114713968943000,4.224943115234375,0.006079673767089844,0.010923303663730621,-0.001750066876411438
1729114714006877400,4.26287744140625,-0.005631446838378906,-0.0012454092502593994,-0.010466724634170532
1729114714044811800,4.300811767578125,0.0033922195434570312,-0.0030402392148971558,-0.012442082166671753
1729114714082745900,4.338745849609375,0.005917549133300781,-0.007435351610183716,-0.0029489099979400635
1729114714120680200,4.37668017578125,0.0006313323974609375,-0.007195018231868744,-0.009659186005592346
1729114714158614500,4.414614501953125,0.0011920928955078125,0.004600048065185547,0.004307344555854797
1729114714196548900,4.452548828125,-0.0018243789672851562,0.007156677544116974,-0.006961166858673096
1729114714234483200,4.490483154296875,0.004776954650878906,-0.00018944591283798218,0.004339009523391724
1729114714272417500,4.52841748046875,-0.0001354217529296875,-0.011669352650642395,-0.004928112030029297
1729114714310352000,4.566351806640625,-0.00690460205078125,0.00270756334066391,-0.007543742656707764
1729114714348286200,4.6042861328125,0.0003757476806640625,0.007616765797138214,-0.014172971248626709
1729114714386220500,4.642220458984375,-0.017627716064453125,0.0026952549815177917,0.0021457523107528687
1729114714424155000,4.68015478515625,0.01568317413330078,-0.002199217677116394,0.008665293455123901
1729114714462089000,4.7180888671875,-0.014399528503417969,0.0050935298204422,-0.005853906273841858
1729114714500023300,4.756023193359375,0.01102447509765625,0.006835095584392548,0.0012697428464889526
1729114714537957600,4.79395751953125,-0.017423629760742188,-0.001915179193019867,0.003725960850715637
1729114714575892000,4.83189208984375,0.011592864990234375,-0.00170135498046875,-0.005244076251983643
1729114714613826300,4.869826416015625,0.0034313201904296875,-0.012935049831867218,0.010494515299797058
1729114714651760600,4.9077607421875,0.0011749267578125,-0.003380700945854187,-0.0010747313499450684
1729114714689695000,4.945695068359375,-0.011514663696289062,0.003653407096862793,0.010183990001678467
1729114714727629300,4.98362939453125,0.009449005126953125,0.005503274500370026,0.000773310661315918
1729114714765563600,5.021563720703125,-0.00023555755615234375,-0.0037478432059288025,0.012669458985328674
1729114714803498000,5.059498046875,-0.003979682922363281,0.0028040260076522827,0.0010860860347747803
1729114714841432300,5.097432373046875,-0.004178047180175781,0.0052514150738716125,-0.006105154752731323
1729114714879366700,5.13536669921875,0.005442619323730469,-0.006368078291416168,0.0005439817905426025
1729114714917300700,5.17330078125,0.002593994140625,-0.0003820359706878662,-0.008615747094154358
1729114714955235000,5.211235107421875,-0.0035915374755859375,-0.000741519033908844,0.005091249942779541
1729114714993169400,5.24916943359375,-0.008226394653320312,0.008470848202705383,0.009889185428619385
1729114715031103700,5.287103759765625,-0.0005540847778320312,0.008541449904441833,0.0012498199939727783
1729114715069038000,5.3250380859375,-0.0036382675170898438,0.003707975149154663,0.0008558183908462524
1729114715106972400,5.362972412109375,-0.011913299560546875,-0.005604572594165802,-0.0031592845916748047
1729114715144906800,5.40090673828125,0.0020608901977539062,-0.003132648766040802,0.005573868751525879
1729114715182841000,5.438841064453125,0.0141143798828125,-0.007681101560592651,-0.17692846059799194
1729114715220775400,5.476775390625,-0.1550760269165039,0.08240614831447601,0.3768114149570465
1729114715258709500,5.51470947265625,-0.0002460479736328125,0.017080340534448624,-0.118679940700531
1729114715296643800,5.552643798828125,-0.2857789993286133,0.09723149240016937,0.1195928156375885
1729114715334578200,5.590578125,0.15550518035888672,0.08576028048992157,0.29253068566322327
1729114715372512500,5.628512451171875,-0.04357433319091797,-0.011092416942119598,-0.12781760096549988
1729114715410446800,5.66644677734375,0.037749290466308594,0.002388395369052887,0.10669267922639847
1729114715448381200,5.704381103515625,-0.06366443634033203,0.019824251532554626,-0.08230920135974884
1729114715486315500,5.7423154296875,0.049347877502441406,0.007640395313501358,0.0318322479724884
1729114715524249900,5.780249755859375,-0.02305126190185547,0.008814267814159393,-0.03857886791229248
1729114715562184200,5.81818408203125,0.01322174072265625,-0.0011787079274654388,0.03134968876838684
1729114715600118500,5.856118408203125,-0.007546424865722656,-0.00532812625169754,-0.01972988247871399
1729114715638052900,5.894052978515625,0.017131805419921875,-0.007266812026500702,0.014835357666015625
1729114715675987200,5.9319873046875,0.0072460174560546875,0.010990466922521591,-0.012100547552108765
1729114715713921500,5.969921630859375,0.005204200744628906,0.0032808929681777954,0.007424503564834595
1729114715751855900,6.00785595703125,0.00037288665771484375,0.0008026063442230225,-0.0007070600986480713
1729114715789790000,6.0457900390625,-0.008337020874023438,-0.0011740513145923615,0.008667796850204468
1729114715827724300,6.083724365234375,0.005503654479980469,0.005481485277414322,-0.007133781909942627
1729114715865658600,6.12165869140625,-0.01305389404296875,0.007519222795963287,0.009065881371498108
1729114715903593000,6.159593017578125,0.0036830902099609375,-0.0019662752747535706,0.004148617386817932
1729114715941527300,6.19752734375,-0.00362396240234375,0.0011702626943588257,0.0037822574377059937
1729114715979461600,6.235461669921875,0.005936622619628906,-0.0008443407714366913,0.0060138702392578125
1729114716017396000,6.27339599609375,-0.00362396240234375,0.001651216298341751,0.0005703568458557129
1729114716055330300,6.311330322265625,0.007822036743164062,-0.005439881235361099,0.00023640692234039307
1729114716093264600,6.3492646484375,-0.0038270950317382812,-0.0029719434678554535,-0.0016944557428359985
1729114716131199000,6.387198974609375,0.010153770446777344,-0.001149207353591919,-0.006179675459861755
1729114716169133300,6.42513330078125,-0.008403778076171875,-0.00102890282869339,0.00325988233089447
1729114716207067600,6.463067626953125,0.0049381256103515625,-0.0007786564528942108,-0.001384347677230835
1729114716245001700,6.501001708984375,0.0045318603515625,-0.005220562219619751,-0.0015244781970977783
1729114716282936000,6.53893603515625,-0.0065097808837890625,0.0036319904029369354,-0.001632779836654663
1729114716320870400,6.576870361328125,-0.0021638870239257812,-0.0064132921397686005,0.0006579607725143433
1729114716358804700,6.6148046875,-0.012734413146972656,-0.001453496515750885,0.005464807152748108
1729114716396739000,6.652739013671875,0.014892578125,-0.005928497761487961,-0.010824024677276611
1729114716434673400,6.69067333984375,-0.00405120849609375,-0.003432881087064743,-0.008042216300964355
1729114716472607700,6.728607666015625,-0.0058727264404296875,-0.007462460547685623,-0.01689039170742035
1729114716510542000,6.7665419921875,0.010088920593261719,0.0012517794966697693,-0.0006577223539352417
1729114716548476400,6.804476318359375,-0.010724067687988281,-0.0008583478629589081,-0.004501253366470337
1729114716586410800,6.84241064453125,0.0037508010864257812,0.003542087972164154,0.00021150708198547363
1729114716624345000,6.880344970703125,-0.0054492950439453125,-0.0033765286207199097,-0.0064667463302612305
1729114716662279400,6.918279541015625,0.010845184326171875,-0.008165989071130753,-0.0014334022998809814
1729114716700213800,6.9562138671875,-0.0035161972045898438,-0.007915772497653961,-0.0033095479011535645
1729114716738148000,6.994148193359375,-0.012307167053222656,0.0020032189786434174,0.00418698787689209
1729114716776082400,7.03208251953125,0.001708984375,-0.0004355907440185547,-0.002442270517349243
1729114716814016800,7.070016845703125,-0.0047588348388671875,0.0022300295531749725,0.0036015361547470093
1729114716851951000,7.107951171875,-0.002735137939453125,0.004976741969585419,0.008946344256401062
1729114716889885400,7.145885498046875,0.006232261657714844,-0.004356030374765396,0.0041489750146865845
1729114716927819800,7.18381982421875,-0.00762939453125,0.007439412176609039,0.0037819594144821167
1729114716965753900,7.22175390625,-0.000774383544921875,0.000016767531633377075,-0.003706231713294983
1729114717003688200,7.259688232421875,-0.0077228546142578125,-0.0042580291628837585,-0.0027402490377426147
1729114717041622500,7.29762255859375,-0.004878997802734375,0.00285947322845459,-0.0008336752653121948
1729114717079556900,7.335556884765625,-0.018670082092285156,0.0007880181074142456,0.00851355493068695
1729114717117491200,7.3734912109375,0.018141746520996094,0.007588822394609451,-0.0032356083393096924
1729114717155425500,7.411425537109375,-0.008062362670898438,-0.00039311498403549194,0.003498584032058716
1729114717193360000,7.44935986328125,0.021450042724609375,0.004041984677314758,0.0019690096378326416
1729114717231294200,7.487294189453125,-0.011267662048339844,0.002016894519329071,0.010871708393096924
1729114717269228500,7.525228515625,-0.026498794555664062,0.005085136741399765,0.11682884395122528
1729114717307163000,7.563162841796875,0.0029888153076171875,-0.01839400827884674,-0.1313444823026657
1729114717345097200,7.60109716796875,0.010083198547363281,0.017664559185504913,0.11850056052207947
1729114717383031600,7.639031494140625,-0.00357818603515625,0.009263776242733002,-0.07968853414058685
1729114717420966000,7.6769658203125,-0.007961273193359375,0.012799732387065887,0.050550445914268494
1729114717458900200,7.714900146484375,0.01035308837890625,0.009310964494943619,-0.04413160681724548
1729114717496834600,7.75283447265625,-0.008098602294921875,0.008954916149377823,0.024874329566955566
1729114717534769000,7.790768798828125,0.01438140869140625,0.0037404894828796387,-0.02800607681274414
1729114717572703200,7.828703125,0.0027780532836914062,-0.007692359387874603,0.01967771351337433
1729114717610637600,7.866637451171875,0.00009250640869140625,-0.00043295323848724365,-0.021603748202323914
1729114717648572000,7.904572021484375,-0.0020542144775390625,-0.0003625229001045227,0.005912527441978455
1729114717686506200,7.94250634765625,0.0024366378784179688,0.0018341168761253357,-0.012880668044090271
1729114717724440600,7.980440673828125,-0.006873130798339844,-0.00034843385219573975,-0.007913351058959961
1729114717762375000,8.018375,0.0006513595581054688,-0.004809215664863586,-0.002477109432220459
1729114717800309200,8.056309326171874,-0.008335113525390625,-0.0018830075860023499,-0.0047019124031066895
1729114717838243600,8.09424365234375,0.005755424499511719,0.0071373023092746735,-0.002399459481239319
1729114717876178000,8.132177978515625,-0.010694503784179688,-0.008703134953975677,-0.004215791821479797
1729114717914112300,8.1701123046875,0.010684013366699219,-0.00409456342458725,-0.005711644887924194
1729114717952046600,8.208046630859375,-0.009062767028808594,0.003278486430644989,0.005517050623893738
1729114717989981000,8.24598095703125,0.005606651306152344,-0.0038352012634277344,0.005482792854309082
1729114718027915300,8.283915283203125,-0.012587547302246094,-0.0010123476386070251,0.0054529160261154175
1729114718065849600,8.321849609375,0.004223823547363281,-0.0035345256328582764,0.005408257246017456
1729114718103784000,8.359783935546876,-0.009799003601074219,-0.0008697733283042908,0.007504582405090332
1729114718141718300,8.39771826171875,-0.013890266418457031,0.010949268937110901,0.007614508271217346
1729114718179652600,8.435652587890624,0.016124725341796875,-0.003754846751689911,-0.010757744312286377
1729114718217587000,8.4735869140625,-0.0006923675537109375,0.007978081703186035,-0.0013706386089324951
1729114718255521300,8.511521240234375,0.0008916854858398438,-0.005696222186088562,-0.003316134214401245
1729114718293455600,8.54945556640625,0.0010471343994140625,-0.001414276659488678,0.0014745742082595825
1729114718331390000,8.587389892578125,-0.008363723754882812,-0.0038584694266319275,-0.008046656847000122
1729114718369324300,8.62532421875,0.0038461685180664062,0.0036010369658470154,0.0016569942235946655
1729114718407258600,8.663258544921876,0.005817413330078125,-0.005804896354675293,0.006291985511779785
1729114718445193000,8.70119287109375,0.006192207336425781,0.003638945519924164,-0.005759477615356445
1729114718483127300,8.739127197265624,0.0077838897705078125,-0.0012718215584754944,0.008237943053245544
1729114718521061600,8.7770615234375,-0.006752967834472656,0.01247921958565712,0.0007669627666473389
1729114718558996000,8.814995849609375,0.0046482086181640625,0.010020680725574493,0.0029208362102508545
1729114718596930300,8.852930419921876,-0.0066585540771484375,-0.004104025661945343,-0.010775715112686157
1729114718634864600,8.89086474609375,-0.0065670013427734375,0.0008463636040687561,0.003385409712791443
1729114718672799000,8.928799072265624,0.0070819854736328125,0.018884766846895218,0.003809303045272827
1729114718710733300,8.9667333984375,-0.0046138763427734375,0.008846379816532135,0.005592480301856995
1729114718748667600,9.004667724609375,0.0022897720336914062,-0.007285177707672119,0.005675703287124634
1729114718786602000,9.04260205078125,-0.006501197814941406,-0.007334645837545395,-0.019750863313674927
1729114718824536300,9.080536376953125,-0.0037908554077148438,-0.007774844765663147,0.004048004746437073
1729114718862470700,9.118470703125,-0.005896568298339844,-0.009673096239566803,-0.005734533071517944
1729114718900405000,9.156405029296875,0.0108184814453125,-0.006994761526584625,-0.0010360926389694214
1729114718938339300,9.19433935546875,0.00110626220703125,-0.008752986788749695,0.0009177625179290771
1729114718976273700,9.232273681640624,-0.005923271179199219,0.0006750598549842834,0.012667819857597351
1729114719014208000,9.2702080078125,0.0040111541748046875,0.00292755663394928,0.0010521262884140015
1729114719052142300,9.308142333984375,0.00571441650390625,0.0028721988201141357,0.005915448069572449
1729114719090076700,9.34607666015625,-0.007839202880859375,0.00030107423663139343,0.0077724456787109375
1729114719128011000,9.384010986328125,0.0018033981323242188,0.005551300942897797,0.005917906761169434
1729114719165945300,9.4219453125,0.0039958953857421875,0.00996658205986023,-0.0008678436279296875
1729114719203879700,9.459879638671875,0.007082939147949219,0.003122858703136444,0.02219754457473755
1729114719241814000,9.49781396484375,-0.001972198486328125,0.009709123522043228,0.007997095584869385
1729114719279748400,9.535748291015626,-0.010301589965820312,0.00015095621347427368,0.0056115686893463135
1729114719317682700,9.5736826171875,0.004000663757324219,-0.002090364694595337,0.007893398404121399
1729114719355617000,9.611616943359374,0.0014324188232421875,-0.0018274858593940735,-0.004018723964691162
1729114719393551400,9.64955126953125,-0.005003929138183594,0.005301613360643387,0.00959467887878418
1729114719431485700,9.687485595703125,0.013624191284179688,-0.017628945410251617,-0.0072687119245529175
1729114719469420000,9.725419921875,-0.007568359375,0.0011349022388458252,0.004299074411392212
1729114719507354400,9.763354248046875,0.007190704345703125,0.0033254995942115784,0.00908564031124115
1729114719545288700,9.801288818359374,0.01068115234375,0.0014868825674057007,0.001834958791732788
1729114719583223000,9.83922314453125,0.0041255950927734375,-0.0055565908551216125,-0.016355976462364197
1729114719621157400,9.877157470703125,0.005939483642578125,0.005621038377285004,0.0006043165922164917
1729114719659091700,9.915091796875,0.00102996826171875,0.0076646581292152405,-0.0019007623195648193
1729114719697026000,9.953026123046875,-0.008120536804199219,0.0009174495935440063,0.004897356033325195
1729114719734960400,9.99096044921875,0.0011739730834960938,0.0052390992641448975,0.010000035166740417
1729114719772894700,10.028894775390626,0.0011739730834960938,0.0027058683335781097,0.012402310967445374
1729114719810829000,10.0668291015625,-0.0007104873657226562,0.006853900849819183,-0.0015354454517364502
1729114719848763400,10.104763427734374,0.006148338317871094,0.0043740831315517426,-0.0016314834356307983
1729114719886697700,10.14269775390625,0.014904022216796875,0.000019721686840057373,0.004967480897903442
1729114719924632300,10.18063232421875,0.0029964447021484375,-0.015550576150417328,-0.004784762859344482
1729114719962566700,10.218566650390626,0.005936622619628906,0.0009599700570106506,0.01634541153907776
1729114720000500700,10.256500732421875,0.009818077087402344,0.0031383633613586426,-0.01194736361503601
1729114720038435300,10.294435302734374,-0.0079498291015625,0.0055629536509513855,0.007050350308418274
1729114720076369700,10.33236962890625,0.007857322692871094,0.0012780874967575073,-0.002489343285560608
1729114720114304000,10.370303955078125,0.0007276535034179688,-0.003635115921497345,0.004426747560501099
1729114720152238300,10.40823828125,-0.005504608154296875,-0.0057738348841667175,-0.0002348572015762329
1729114720190172700,10.446172607421875,-0.0010137557983398438,0.003908038139343262,0.000634118914604187
1729114720228107000,10.48410693359375,-0.0015325546264648438,0.0008584707975387573,-0.003601446747779846
1729114720266041300,10.522041259765626,0.009939193725585938,-0.0013746470212936401,-0.0037567466497421265
1729114720303975700,10.5599755859375,0.004970550537109375,-0.0013592392206192017,-0.0009906589984893799
1729114720341910000,10.597909912109374,-0.006621360778808594,-0.006116718053817749,0.0008472055196762085
1729114720379844400,10.63584423828125,0.012056350708007812,-0.003954924643039703,-0.014974549412727356
1729114720417778700,10.67377880859375,0.002338409423828125,0.007397230714559555,-0.005472823977470398
1729114720455713000,10.711713134765626,-0.00030040740966796875,-0.0043119750916957855,-0.0029243826866149902
1729114720493647400,10.7496474609375,-0.009687423706054688,-0.011006578803062439,0.00588555634021759
1729114720531581700,10.787581787109374,-0.0065059661865234375,-0.001655571162700653,0.005974233150482178
1729114720569516000,10.82551611328125,-0.004299163818359375,0.011482913047075272,0.00331290066242218
1729114720607450400,10.863450439453125,-0.01564311981201172,-0.0069635286927223206,0.003443509340286255
1729114720645384700,10.901384765625,0.0008687973022460938,0.0070021674036979675,0.003668159246444702
1729114720683319300,10.9393193359375,-0.010155677795410156,-0.006918799132108688,0.0012320131063461304
1729114720721253600,10.977253662109375,-0.009686470031738281,0.00037224218249320984,0.006093502044677734
1729114720759188000,11.01518798828125,-0.002105712890625,0.00045675039291381836,0.0016157329082489014
1729114720797122300,11.053122314453125,0.0023975372314453125,0.000024568289518356323,-0.0030214935541152954
1729114720835056600,11.091056640625,-0.0046443939208984375,0.0063247643411159515,-0.0002240389585494995
1729114720872991000,11.128990966796875,0.013947486877441406,-0.002879928797483444,-0.0007467716932296753
1729114720910925300,11.16692529296875,-0.0074062347412109375,0.008299827575683594,0.0035592466592788696
1729114720948859600,11.204859619140626,0.009095191955566406,-0.0033568181097507477,0.0012673288583755493
1729114720986794000,11.2427939453125,-0.00030040740966796875,-0.007490221410989761,0.010258197784423828
1729114721024728300,11.280728271484374,-0.0024051666259765625,-0.013440705835819244,0.001209750771522522
1729114721062662700,11.31866259765625,-0.004658699035644531,-0.008426055312156677,-0.003975778818130493
1729114721100597000,11.356596923828125,0.004385948181152344,-0.0012125968933105469,0.0022005438804626465
1729114721138531300,11.39453125,0.004666328430175781,-0.010373488068580627,-0.009376466274261475
1729114721176466000,11.4324658203125,0.006548881530761719,0.007877252995967865,-0.0020193159580230713
1729114721214400300,11.470400146484375,-0.0032062530517578125,-0.005870141088962555,-0.014009729027748108
1729114721252334600,11.50833447265625,0.008317947387695312,0.005365021526813507,0.0026820600032806396
1729114721290269000,11.54626904296875,-0.0035104751586914062,-0.006243087351322174,0.0042292773723602295
1729114721328203300,11.584203369140624,0.01081085205078125,-0.006318889558315277,0.00386694073677063
1729114721366137600,11.6221376953125,-0.012468338012695312,0.009617555886507034,-0.003232210874557495
1729114721404072000,11.660072021484375,0.0065898895263671875,0.007355310022830963,-0.009834885597229004
1729114721442006300,11.69800634765625,0.008769035339355469,-0.004583168774843216,0.006615534424781799
1729114721479940600,11.735940673828125,-0.011898040771484375,0.004511982202529907,-0.0043487101793289185
1729114721517875000,11.773875,-0.0025739669799804688,0.004728779196739197,0.005114451050758362
1729114721555809300,11.811809326171876,-0.00719451904296875,-0.002339296042919159,0.010051131248474121
1729114721593744000,11.849743896484375,0.018331527709960938,-0.0050888992846012115,0.007549643516540527
1729114721631678200,11.88767822265625,-0.016684532165527344,-0.009355608373880386,0.004920214414596558
1729114721669612500,11.925612548828125,0.011875152587890625,0.0025217346847057343,-0.006067603826522827
1729114721707547000,11.963546875,-0.01415252685546875,-0.006977055221796036,-0.010471835732460022
1729114721745481200,12.001481201171876,0.003078460693359375,-0.013332463800907135,0.0009452849626541138
1729114721783415600,12.03941552734375,0.000110626220703125,-0.004023656249046326,-0.008511319756507874
1729114721821350000,12.077349853515624,0.00273895263671875,-0.005806714296340942,0.009952202439308167
1729114721859284200,12.1152841796875,0.00005626678466796875,0.001652441918849945,-0.0013052970170974731
1729114721897218600,12.153218505859375,0.00005245208740234375,0.003804631531238556,-0.008010417222976685
1729114721935153000,12.19115283203125,0.002681732177734375,-0.0031720176339149475,0.01103915274143219
1729114721973087500,12.22908740234375,0.0003814697265625,-0.005165316164493561,-0.0014933198690414429
1729114722011021800,12.267021728515624,0.005366325378417969,-0.0006404295563697815,0.0009714365005493164
1729114722048956200,12.3049560546875,0.0022735595703125,-0.0028667449951171875,-0.0041089653968811035
1729114722086890500,12.342890380859375,0.0044155120849609375,0.00871342420578003,0.016595035791397095
1729114722124824800,12.380824951171874,-0.011260032653808594,-0.004977688193321228,-0.0048857182264328
1729114722162759200,12.41875927734375,0.013950347900390625,0.0013997629284858704,-0.0008132010698318481
1729114722200693500,12.456693603515625,-0.00325775146484375,-0.0008314996957778931,-0.0035850852727890015
1729114722238627800,12.4946279296875,0.010281562805175781,-0.007123768329620361,0.0015292167663574219
1729114722276562200,12.532562255859375,0.0005016326904296875,-0.009577460587024689,-0.014782443642616272
1729114722314496500,12.57049658203125,-0.003951072692871094,0.00407785177230835,0.008614018559455872
1729114722352431000,12.60843115234375,0.00263214111328125,-0.004502445459365845,-0.0006645321846008301
1729114722390365400,12.646365478515625,-0.006069183349609375,-0.0017299577593803406,-0.00039552152156829834
1729114722428299800,12.6842998046875,0.003509521484375,0.002869449555873871,0.012247979640960693
1729114722466234000,12.722234130859375,-0.010186195373535156,-0.0015720278024673462,-0.004315793514251709
1729114722504168400,12.76016845703125,0.021820068359375,-0.0017672255635261536,-0.004054546356201172
1729114722542102800,12.798102783203126,-0.0042819976806640625,-0.008850917220115662,-0.01607319712638855
1729114722580037000,12.836037109375,-0.001682281494140625,0.0008868798613548279,0.004593014717102051
1729114722617971700,12.8739716796875,0.0055332183837890625,-0.001962430775165558,-0.004232153296470642
1729114722655906000,12.911906005859375,0.0030498504638671875,0.0006411969661712646,-0.013215780258178711
1729114722693840400,12.94984033203125,-0.0131072998046875,0.005626484751701355,0.010133728384971619
1729114722731774700,12.987774658203126,-0.007922172546386719,0.010275974869728088,0.002722024917602539
1729114722769709000,13.025708984375,-0.000911712646484375,-0.008774079382419586,-0.006649598479270935
1729114722807643400,13.063643310546874,0.005846977233886719,-0.006567671895027161,0.002411484718322754
1729114722845577700,13.10157763671875,0.0032052993774414062,-0.004223443567752838,-0.000016391277313232422
1729114722883512000,13.139511962890625,-0.003673553466796875,0.003017507493495941,-0.004694342613220215
1729114722921446700,13.17744677734375,0.0077800750732421875,0.009475961327552795,0.0024208873510360718
1729114722959381000,13.215381103515625,0.0005331039428710938,0.002172432839870453,0.013558104634284973
1729114722997315300,13.2533154296875,-0.0035429000854492188,0.002524152398109436,-0.004662558436393738
1729114723035249700,13.291249755859376,0.0062618255615234375,0.001983262598514557,0.009124353528022766
1729114723073184000,13.32918408203125,-0.012251853942871094,-0.005393669009208679,-0.01148843765258789
1729114723111118300,13.367118408203124,0.0067844390869140625,0.004231177270412445,0.011937856674194336
1729114723149052700,13.405052734375,-0.002742767333984375,-0.0027402490377426147,-0.00043688714504241943
1729114723186987300,13.4429873046875,-0.05962085723876953,0.1608022153377533,-0.00782690942287445
1729114723224921600,13.480921630859376,0.01638507843017578,0.42460617423057556,0.0223332941532135
1729114723262856000,13.51885595703125,-0.042293548583984375,0.4067915976047516,0.07812875509262085
1729114723300790300,13.556790283203124,-0.09109783172607422,0.3160867691040039,-0.06898398697376251
1729114723338724600,13.594724609375,0.010278701782226562,0.627621054649353,0.05449095368385315
1729114723376659000,13.632658935546875,0.04066944122314453,0.8190130591392517,0.034856364130973816
1729114723414593300,13.67059326171875,-0.0277099609375,0.8482605218887329,0.09814269840717316
1729114723452527900,13.70852783203125,0.11882972717285156,0.7640993595123291,-0.07673276960849762
1729114723490462200,13.746462158203125,-0.15227603912353516,0.7966876029968262,0.08440469205379486
1729114723528396500,13.784396484375,0.21158504486083984,0.34210842847824097,0.21998752653598785
1729114723566331000,13.822330810546875,-0.046492576599121094,0.2964862585067749,-0.08094175159931183
1729114723604265200,13.86026513671875,-0.01038360595703125,0.4339340925216675,0.17552059888839722
1729114723642199600,13.898199462890625,-0.3207855224609375,0.6912297606468201,0.13199371099472046
1729114723680134100,13.936134033203125,-1.2279043197631836,0.5350612998008728,-0.06910040974617004
1729114723718068500,13.974068359375,-1.0553131103515625,-0.15513277053833008,0.27181822061538696
1729114723756002800,14.0120029296875,0.14767837524414062,0.22061043977737427,0.3197774291038513
1729114723793937200,14.049937255859374,0.6690940856933594,-0.13243454694747925,-0.013527631759643555
1729114723831871500,14.08787158203125,0.3302421569824219,-0.4226383566856384,-0.2287125140428543
1729114723869805800,14.125805908203125,0.6919460296630859,0.12516313791275024,0.0946139544248581
1729114723907740200,14.163740234375,-0.9822969436645508,0.40823042392730713,-0.012501128017902374
1729114723945674800,14.2016748046875,0.49872493743896484,0.3262965679168701,0.6448953747749329
1729114723983609000,14.239609130859375,-0.8112363815307617,0.6815418601036072,0.0048380047082901
1729114724021543400,14.27754345703125,0.5228500366210938,0.1397905945777893,-0.22894538938999176
1729114724059477800,14.315477783203125,-0.7291393280029297,0.3055468201637268,-0.1468535214662552
1729114724097412000,14.353412109375,-0.7256202697753906,0.8437497615814209,-0.0269966721534729
1729114724135346400,14.391346435546875,0.42642879486083984,0.2946239709854126,0.3876799941062927
1729114724173281000,14.429281005859375,-0.8914918899536133,1.2427003383636475,-0.8342795372009277
1729114724211215400,14.46721533203125,-0.2835817337036133,0.8120585680007935,0.5154937505722046
1729114724249149700,14.505149658203125,2.2051820755004883,-0.2166675329208374,0.39393648505210876
1729114724287084000,14.543083984375,0.913212776184082,-0.3743972182273865,-0.07093682885169983
1729114724325018400,14.581018310546876,1.3323049545288086,-0.6069681644439697,0.10673867911100388
1729114724362953000,14.618952880859375,-0.34378910064697266,-0.8473861813545227,0.6289604306221008
1729114724400887300,14.65688720703125,4.368884086608887,-0.9608662128448486,0.03655150532722473
1729114724438821600,14.694821533203125,-2.6060543060302734,-0.6259576082229614,-0.64994215965271
1729114724476756000,14.732755859375,-1.1517753601074219,-0.682442307472229,-0.7418549060821533
1729114724514690300,14.770690185546876,-1.5237903594970703,-1.831636667251587,-0.681876540184021
1729114724552624600,14.808624755859375,1.0477333068847656,-0.9708868265151978,0.6631244421005249
1729114724590559200,14.846559326171874,-4.085076808929443,-1.273766279220581,-1.184761881828308
1729114724628493600,14.88449365234375,1.5411882400512695,-2.4098596572875977,-1.4383703470230103
1729114724666428000,14.922427978515625,-1.5665550231933594,-0.9141069650650024,-0.9364759922027588
1729114724704362200,14.9603623046875,-0.3731241226196289,-1.6241137981414795,0.598857045173645
1729114724742296600,14.998296630859375,1.7914667129516602,-1.4724820852279663,-0.9844958186149597
1729114724780231000,15.03623095703125,-1.305375099182129,-0.5887089371681213,-1.832576870918274
1729114724818165500,15.07416552734375,1.7363176345825195,-1.0436224937438965,-1.0107426643371582
1729114724856099800,15.112099853515625,1.2815418243408203,-1.3266133069992065,-0.7432312369346619
1729114724894034200,15.1500341796875,-0.7124948501586914,-1.3321175575256348,-2.1360864639282227
1729114724931968500,15.187968505859375,1.1799001693725586,-1.955315113067627,-1.5917185544967651
1729114724969902800,15.22590283203125,-1.261397361755371,-1.4419008493423462,-1.2369074821472168
1729114725007837400,15.26383740234375,0.725001335144043,-1.1307626962661743,-1.1512043476104736
1729114725045771800,15.301771728515625,0.12318706512451172,0.0876646339893341,-1.1349661350250244
1729114725083706000,15.3397060546875,-0.8567724227905273,0.3406466543674469,-1.5999619960784912
1729114725121640400,15.377640380859376,0.7102556228637695,0.6177855730056763,-0.47122490406036377
1729114725159575000,15.415574951171875,-0.7353410720825195,0.2793174386024475,-1.739980697631836
1729114725197509400,15.45350927734375,1.7054224014282227,-0.475985586643219,-0.30826690793037415
1729114725235443700,15.491443603515625,-1.2456331253051758,-0.5955061912536621,-1.4003682136535645
1729114725273378000,15.5293779296875,0.8501186370849609,-0.5321922898292542,-0.6319538950920105
1729114725311312400,15.5673125,-0.4000234603881836,-0.542332649230957,-1.366625428199768
1729114725349246700,15.605246826171875,-0.34049034118652344,-0.09161776304244995,-0.17291830480098724
1729114725387181300,15.643181396484374,-0.9883890151977539,0.7709064483642578,0.6258988976478577
1729114725425115600,15.68111572265625,-1.1656246185302734,2.5128064155578613,-0.17100922763347626
1729114725463050000,15.719050048828125,-8.17542552947998,2.566005229949951,-0.5527749061584473
1729114725500984300,15.756984375,1.4125680923461914,1.7922453880310059,1.5206215381622314
1729114725538918700,15.794918701171875,-4.142189979553223,1.142009973526001,1.5231354236602783
1729114725576853200,15.832853271484375,5.425596237182617,-1.1781120300292969,0.6472567915916443
1729114725614787600,15.87078759765625,0.7175312042236328,-0.02406555414199829,0.3962123990058899
1729114725652722000,15.908721923828125,-2.6911630630493164,-0.16529840230941772,0.028737246990203857
1729114725690656300,15.94665625,-0.41396141052246094,-0.30517271161079407,0.7382974028587341
1729114725728590800,15.9845908203125,-1.0177545547485352,0.1648317575454712,0.9744739532470703
1729114725766525200,16.022525146484377,-0.2125539779663086,-1.523078441619873,0.23169401288032532
1729114725804459500,16.06045947265625,0.3978271484375,-0.48043006658554077,1.074957251548767
1729114725842393900,16.098393798828123,-2.105370044708252,-0.5940225124359131,1.9162895679473877
1729114725880328200,16.136328125,5.023573875427246,-1.2620980739593506,2.100541353225708
1729114725918262800,16.1742626953125,-3.145969867706299,0.0057697296142578125,0.27696260809898376
1729114725956197000,16.212197021484375,-1.079732894897461,-0.832091212272644,2.135619878768921
1729114725994131500,16.25013134765625,5.073418617248535,-1.2270801067352295,1.7541236877441406
1729114726032065800,16.288065673828125,-3.134977340698242,0.04235732555389404,1.4882268905639648
1729114726070000000,16.326000244140626,-1.3386602401733398,-0.39579811692237854,1.7775285243988037
1729114726107934700,16.363934814453124,0.5519113540649414,-1.3401846885681152,1.7806038856506348
1729114726145869000,16.401869140625,0.6353311538696289,-0.3326179087162018,1.971972942352295
1729114726183803400,16.439803466796874,-1.8659887313842773,-1.326647162437439,1.2209551334381104
1729114726221737700,16.47773779296875,3.615382194519043,-0.8276422023773193,2.641458749771118
1729114726259672300,16.51567236328125,-4.334552764892578,-0.5164685249328613,1.0448921918869019
1729114726297606700,16.553606689453126,2.746270179748535,-0.9289905428886414,2.415668249130249
1729114726335541000,16.591541015625,1.6020736694335938,-0.4327991306781769,1.7046542167663574
1729114726373475300,16.629475341796876,-5.572727680206299,0.1558510959148407,1.5193569660186768
1729114726411410000,16.667409912109374,-1.5833454132080078,-0.9825112819671631,1.2739713191986084
1729114726449344300,16.70534423828125,3.910311698913574,-1.1346243619918823,1.9512808322906494
1729114726487278600,16.743278564453124,-2.7967309951782227,0.8875868320465088,1.8375616073608398
1729114726525213000,16.781212890625,-4.049047470092773,-0.9520593285560608,2.0800013542175293
1729114726563147300,16.819147216796875,1.6223859786987305,-0.7521651387214661,1.1562402248382568
1729114726601081900,16.857081787109376,-2.233543872833252,0.1076202392578125,0.7202587723731995
1729114726639016200,16.89501611328125,1.9844427108764648,-1.6441112756729126,1.1292355060577393
1729114726676950500,16.932950439453126,-0.14119720458984375,0.06730762124061584,0.6430703401565552
1729114726714884900,16.970884765625,-5.829901695251465,0.1192568838596344,0.5096524953842163
1729114726752819500,17.0088193359375,3.0031375885009766,-1.1002657413482666,0.9860444664955139
1729114726790753800,17.04675390625,2.9102048873901367,0.24759861826896667,1.1225756406784058
1729114726828688100,17.084688232421875,-3.7507219314575195,0.1103363037109375,-0.07309722900390625
1729114726866622500,17.12262255859375,1.0623817443847656,-0.3619796931743622,0.5446732044219971
1729114726904557000,17.16055712890625,0.529423713684082,-1.2139976024627686,0.0711679458618164
1729114726942491400,17.198491455078123,-1.8640012741088867,0.148532897233963,1.0607200860977173
1729114726980425700,17.23642578125,-0.5674495697021484,-0.7491347789764404,-2.8824310302734375
1729114727018360000,17.274360107421874,1.2386274337768555,-0.9677789211273193,-1.6899281740188599
1729114727056294700,17.312294677734375,1.0401859283447266,-0.2063886523246765,0.672170877456665
1729114727094229000,17.35022900390625,-5.049072742462158,0.2660195529460907,-0.12123627960681915
1729114727132163300,17.388163330078125,0.21692752838134766,-1.0889557600021362,-0.3575475811958313
1729114727170097700,17.42609765625,0.3195762634277344,-0.4567239284515381,-0.01106087863445282
1729114727208032300,17.4640322265625,0.6640281677246094,-0.05573257803916931,-0.3285751938819885
1729114727245966600,17.501966552734373,-1.9986047744750977,-0.26791471242904663,-0.9767711162567139
1729114727283901000,17.53990087890625,2.3309593200683594,-0.8099780082702637,-1.0060018301010132
1729114727321835300,17.577835205078124,-0.766876220703125,0.18056100606918335,0.008187808096408844
1729114727359769900,17.615769775390625,1.0362110137939453,0.2393258810043335,-0.6833038330078125
1729114727397704200,17.6537041015625,0.3630838394165039,-0.2777518928050995,-1.3993818759918213
1729114727435638500,17.691638427734375,0.49622154235839844,-1.1307626962661743,-0.8832299113273621
1729114727473572900,17.72957275390625,1.1843509674072266,0.10551159083843231,-1.5040184259414673
1729114727511507500,17.767507568359374,-3.718494415283203,0.3365146517753601,-1.859074354171753
1729114727549441800,17.80544189453125,4.28179931640625,-1.8895424604415894,-0.8733406066894531
1729114727587376000,17.843376220703124,0.39830684661865234,-0.7790036797523499,-0.8399645090103149
1729114727625310500,17.881310546875,-1.80584716796875,-0.017593801021575928,-1.2612724304199219
1729114727663245000,17.9192451171875,-0.8118247985839844,0.05415800213813782,-1.28865647315979
1729114727701179400,17.957179443359376,1.653580665588379,-0.6929690837860107,-1.1799405813217163
1729114727739113700,17.99511376953125,-0.6820087432861328,0.10844604671001434,-1.7840646505355835
1729114727777048000,18.033048095703126,0.8978614807128906,-0.14826996624469757,-0.49422067403793335
1729114727814982700,18.070982666015624,-1.2352628707885742,0.03086775541305542,-1.3805038928985596
1729114727852917000,18.1089169921875,0.33089160919189453,-0.8965905904769897,-1.2421159744262695
1729114727890851300,18.146851318359374,1.3951101303100586,-1.550674319267273,-1.9122557640075684
1729114727928786000,18.184785888671875,-1.3699989318847656,-0.21988719701766968,-0.47122207283973694
1729114727966720300,18.22272021484375,0.9773178100585938,0.2865653336048126,-1.5277180671691895
1729114728004654600,18.260654541015626,-1.7194852828979492,-0.30828583240509033,-1.9717661142349243
1729114728042589000,18.2985888671875,1.3874540328979492,-0.9575400948524475,-1.1250386238098145
1729114728080523500,18.3365234375,-0.8121194839477539,-0.6845057606697083,-1.3151330947875977
1729114728118457900,18.374457763671874,-0.6832456588745117,0.024309292435646057,-0.3923914432525635
1729114728156392200,18.41239208984375,-0.5885162353515625,0.3900374174118042,-1.2727110385894775
1729114728194326500,18.450326416015624,-0.5726594924926758,0.8135166168212891,-1.1246856451034546
1729114728232261000,18.48826123046875,1.3611993789672852,0.17685852944850922,-0.8048763871192932
1729114728270195500,18.526195556640626,-1.7174787521362305,-0.6150571703910828,-1.287937879562378
1729114728308129800,18.5641298828125,3.289401054382324,-0.9151650667190552,0.8716737627983093
1729114728346064100,18.602064208984373,-4.255555152893066,0.28143197298049927,0.14689260721206665
1729114728383998700,18.639998779296874,1.2375860214233398,-0.6816473007202148,0.04823622107505798
1729114728421933000,18.67793310546875,3.873014450073242,-0.9533270001411438,0.2888626456260681
1729114728459867400,18.715867431640625,-2.391819953918457,0.47728654742240906,0.47483137249946594
1729114728497802000,18.753802001953126,-2.484187126159668,-0.7612318992614746,-0.005132704973220825
1729114728535736300,18.791736328125,2.8429861068725586,-0.9142662286758423,0.37983202934265137
1729114728573670700,18.829670654296876,-4.319295883178711,-0.2374919354915619,-0.5990278720855713
1729114728611605000,18.86760498046875,-1.6456975936889648,0.6161907315254211,-0.20413801074028015
1729114728649539600,18.90553955078125,4.679913520812988,-1.3537760972976685,-0.1570400893688202
1729114728687474000,18.943473876953124,1.0410194396972656,0.38648152351379395,-0.021073848009109497
1729114728725408300,18.981408203125,-1.0502204895019531,0.3177061080932617,-1.2392418384552002
1729114728763342800,19.0193427734375,1.2515897750854492,-1.0814416408538818,-0.35674363374710083
1729114728801277200,19.057277099609376,0.4211397171020508,-0.2683435082435608,0.03787025809288025
1729114728839211500,19.09521142578125,-1.3970441818237305,-0.5104711651802063,0.41513633728027344
1729114728877145900,19.133145751953126,3.565342903137207,-1.1716233491897583,-0.670543909072876
1729114728915080400,19.17108056640625,-2.867696762084961,-0.8607675433158875,-1.0219767093658447
1729114728953014800,19.209014892578125,1.7094135284423828,-2.09464168548584,-0.6939636468887329
1729114728990949000,19.24694921875,-0.8910741806030273,-1.0206362009048462,0.1827581822872162
1729114729028883500,19.284883544921875,0.40375518798828125,-1.8396852016448975,0.016157180070877075
1729114729066818000,19.322818115234377,1.7024784088134766,-2.5721962451934814,0.050552189350128174
1729114729104752400,19.36075244140625,-2.709688663482666,-1.5995278358459473,0.11525878310203552
1729114729142686700,19.398686767578123,4.232661247253418,-2.4761264324188232,0.10954153537750244
1729114729180621300,19.436621337890625,-0.8781194686889648,-1.5551886558532715,-1.5298566818237305
1729114729218555600,19.4745556640625,0.7331781387329102,-1.7224020957946777,-0.3874094784259796
1729114729256490000,19.512489990234375,0.5789918899536133,-1.7188615798950195,1.429297685623169
1729114729294424600,19.550424560546876,0.17481136322021484,-1.862059235572815,0.20634248852729797
1729114729332359000,19.58835888671875,-0.14811229705810547,-2.0959815979003906,-0.5674352049827576
1729114729370293200,19.626293212890626,-0.13479995727539062,-1.8335272073745728,0.3429066836833954
1729114729408227600,19.6642275390625,-0.14174175262451172,-1.688377857208252,0.023327171802520752
1729114729446162200,19.702162109375,-0.001865386962890625,-1.5252490043640137,-0.19440263509750366
1729114729484096500,19.740096435546874,0.019433021545410156,-1.1746326684951782,0.5819697380065918
1729114729522030800,19.77803076171875,-0.014202117919921875,-0.8614934682846069,0.2495933473110199
1729114729559965400,19.81596533203125,0.02219104766845703,-0.6531551480293274,-0.25700026750564575
1729114729597899800,19.853899658203126,0.10649776458740234,-0.34667444229125977,0.28293269872665405
1729114729635834000,19.891834228515624,-0.10538673400878906,-0.005377233028411865,0.2717660665512085
1729114729673768400,19.9297685546875,0.02739429473876953,0.2510311007499695,-0.10170653462409973
1729114729711703000,19.967703125,-0.04743766784667969,0.4976171851158142,-0.004142165184020996
1729114729749637400,20.005637451171875,0.03982830047607422,0.6218699812889099,0.18293777108192444
1729114729787572000,20.043572021484376,-0.01779460906982422,0.6232962608337402,0.2515873312950134
1729114729825506300,20.08150634765625,0.0014247894287109375,0.6628318428993225,0.24866169691085815
1729114729863440600,20.119440673828127,-0.018813133239746094,0.583410918712616,0.04150834679603577
1729114729901375000,20.157375,0.019664764404296875,0.3952239155769348,0.05029973387718201
1729114729939309600,20.1953095703125,-0.019708633422851562,0.2872396409511566,0.09630635380744934
1729114729977244000,20.233243896484375,0.02303600311279297,0.16069452464580536,0.0391046404838562
1729114730015178200,20.27117822265625,-0.011597633361816406,0.09660789370536804,0.04410910606384277
1729114730053112800,20.30911279296875,0.02070140838623047,0.03944462537765503,0.046650588512420654
1729114730091047200,20.347047119140626,-0.0074005126953125,0.021750211715698242,0.037388354539871216
1729114730128981500,20.3849814453125,0.011359214782714844,0.029857873916625977,0.03999358415603638
1729114730166915800,20.422915771484377,-0.010229110717773438,0.053443312644958496,0.048489928245544434
1729114730204850400,20.460850341796874,-0.012654304504394531,0.08075802028179169,0.03536835312843323
1729114730242784800,20.49878466796875,0.0057830810546875,0.10965034365653992,0.03823554515838623
1729114730280719400,20.53671923828125,0.00075531005859375,0.10676132142543793,0.020422667264938354
1729114730318653700,20.57465380859375,0.0034341812133789062,0.07025845348834991,0.006271928548812866
1729114730356588000,20.612588134765623,0.0031919479370117188,0.07536983489990234,0.017365097999572754
1729114730394522400,20.6505224609375,0.010129928588867188,0.04703861474990845,-0.0028673410415649414
1729114730432457000,20.68845703125,0.009286880493164062,0.045101016759872437,0.016278445720672607
1729114730470391300,20.726391357421875,-0.011309623718261719,0.033432766795158386,0.013629049062728882
1729114730508325600,20.76432568359375,0.0009670257568359375,0.025431498885154724,0.0012129247188568115
1729114730546260200,20.80226025390625,0.0050067901611328125,0.02269826829433441,0.020663827657699585
1729114730584194600,20.840194580078126,-0.011364936828613281,0.027444690465927124,0.013764828443527222
1729114730622129000,20.87812890625,0.000789642333984375,0.027022644877433777,0.020182311534881592
1729114730660063500,20.9160634765625,0.005101203918457031,0.02664373815059662,0.012068897485733032
1729114730697997800,20.953997802734374,0.0027923583984375,0.0171184241771698,0.0018344521522521973
1729114730735932200,20.99193212890625,-0.0040454864501953125,0.030373796820640564,0.010042786598205566
1729114730773866800,21.02986669921875,-0.0058727264404296875,0.012406140565872192,0.006959438323974609
1729114730811801000,21.067801025390626,-0.02196788787841797,0.017233461141586304,-0.06401810050010681
1729114730849735400,21.1057353515625,-0.0027914047241210938,0.02999374270439148,-0.07674020528793335
1729114730887670000,21.143669921875,-0.021551132202148438,0.03211374580860138,-0.043384820222854614
1729114730925604400,21.181604248046874,-0.048127174377441406,0.0002333223819732666,0.0067646801471710205
1729114730963538700,21.21953857421875,0.07107925415039062,-0.03929238021373749,-0.17523804306983948
1729114731001473000,21.25747314453125,-0.09530067443847656,-0.011537536978721619,-0.5549570322036743
1729114731039407600,21.29540771484375,0.022835731506347656,0.08423638343811035,-0.608710765838623
1729114731077342000,21.333342041015626,-0.13378524780273438,0.07026039063930511,-0.9323776364326477
1729114731115276500,21.371276611328124,0.19635963439941406,-0.13331013917922974,-0.9164026379585266
1729114731153211000,21.4092109375,-0.4255552291870117,-0.09742806851863861,-0.3523690700531006
1729114731191145200,21.447145263671874,0.15488433837890625,-0.47105279564857483,-0.009888052940368652
1729114731229079600,21.48507958984375,0.02536296844482422,-0.566426694393158,-0.191025972366333
1729114731267014100,21.52301416015625,0.1636638641357422,-0.8184013366699219,-0.23203927278518677
1729114731304948500,21.560948486328126,-0.022212982177734375,-0.7989532947540283,-0.08030545711517334
1729114731342882800,21.5988828125,0.11628437042236328,-0.7430816292762756,0.2195281982421875
1729114731380817400,21.6368173828125,0.1111917495727539,-0.8707853555679321,0.7303768992424011
1729114731418751700,21.674751708984374,-0.3585519790649414,-1.0118757486343384,-0.15208351612091064
1729114731456686000,21.71268603515625,0.33085060119628906,-0.5584323406219482,0.7436553835868835
1729114731494620700,21.75062060546875,0.4008598327636719,-0.3953750431537628,1.5161995887756348
1729114731532555000,21.788554931640626,-0.1766510009765625,-0.8703378438949585,-0.020475387573242188
1729114731570489300,21.8264892578125,0.10918617248535156,-0.7462783455848694,0.06038844585418701
1729114731608424000,21.864423828125,-0.028328895568847656,-0.5900865793228149,0.5840864181518555
1729114731646358300,21.902358154296873,0.17316818237304688,-0.6336029171943665,0.7674757838249207
1729114731684292600,21.940292724609375,-0.005692481994628906,-0.7353647947311401,0.17478007078170776
1729114731722227200,21.978227294921876,0.16872215270996094,-0.783807098865509,0.16434180736541748
1729114731760161500,22.01616162109375,-0.054757118225097656,-0.7393113970756531,0.38723933696746826
1729114731798096100,22.05409619140625,-0.004680633544921875,-0.5252271294593811,0.31232911348342896
1729114731836030500,22.092030517578124,-0.6144523620605469,-0.3303052484989166,-0.06048774719238281
1729114731873964800,22.12996484375,0.5570249557495117,-0.5489325523376465,0.8035725355148315
1729114731911899100,22.167899169921874,-0.3157663345336914,-0.4403607249259949,0.35869085788726807
1729114731949833700,22.205833740234375,0.2416248321533203,-0.4618539810180664,0.08045026659965515
1729114731987768000,22.24376806640625,-0.1258831024169922,-0.4504726231098175,0.3555443286895752
1729114732025702400,22.281702392578126,0.1176309585571289,-0.3793003559112549,0.08030572533607483
1729114732063637000,22.319636962890623,-0.1756582260131836,-0.23452025651931763,0.2786358594894409
1729114732101571300,22.3575712890625,0.07939338684082031,-0.1747487485408783,0.29496845602989197
1729114732139506000,22.395505859375,-0.09510326385498047,-0.1416555941104889,0.5136341452598572
1729114732177440300,22.433440185546875,0.06107521057128906,-0.08786055445671082,0.638985276222229
1729114732215374600,22.47137451171875,-0.164031982421875,0.05389876663684845,1.7333163022994995
1729114732253309200,22.50930908203125,-0.17905330657958984,0.1950923651456833,2.3121047019958496
1729114732291243500,22.547243408203126,0.11253070831298828,0.31770551204681396,1.8154534101486206
1729114732329177900,22.585177734375,-0.1963520050048828,0.28931307792663574,0.8628461360931396
1729114732367112400,22.623112548828125,0.48186397552490234,0.03477995842695236,-0.6961414813995361
1729114732405046800,22.661046875,0.46422386169433594,-0.0566229447722435,-0.4023733139038086
1729114732442981000,22.698981201171875,0.07149600982666016,0.1824522316455841,0.21183006465435028
1729114732480915700,22.736915771484377,-0.06982231140136719,0.14578238129615784,-0.07703723013401031
1729114732518850000,22.77485009765625,-0.0228118896484375,0.161294087767601,-0.26997676491737366
1729114732556784400,22.812784423828123,-0.020111083984375,0.33263200521469116,0.05244011431932449
1729114732594719000,22.850718994140625,0.013247489929199219,0.3107718229293823,-0.0690029039978981
1729114732632653300,22.8886533203125,0.0012645721435546875,0.2617298364639282,-0.07648784667253494
1729114732670587600,22.926587646484375,0.005527496337890625,0.22666847705841064,-0.019536741077899933
1729114732708522200,22.964522216796876,-0.005118370056152344,0.16248992085456848,-0.07374218851327896
1729114732746456600,23.00245654296875,-0.005442619323730469,0.09453858435153961,-0.034051984548568726
1729114732784391000,23.040390869140627,-0.011637687683105469,0.073651023209095,-0.04998515546321869
1729114732822325500,23.078325439453124,-0.0023403167724609375,0.061690691858530045,-0.03404991328716278
1729114732860259800,23.116259765625,-0.020178794860839844,0.0840652734041214,-0.033007025718688965
1729114732898194200,23.154194091796874,0.0032300949096679688,0.08885806798934937,-0.022800058126449585
1729114732936128800,23.192128662109376,0.0012464523315429688,0.08543296158313751,-0.027118206024169922
1729114732974063000,23.23006298828125,0.0017375946044921875,0.06024277210235596,-0.02506124973297119
1729114733011997700,23.267997802734374,0.0016775131225585938,0.046717509627342224,-0.02301517128944397
1729114733049932000,23.30593212890625,0.008658409118652344,0.034904494881629944,-0.016291067004203796
1729114733087866400,23.343866455078125,-0.014636993408203125,0.030522793531417847,-0.023974180221557617
1729114733125801000,23.381801025390626,-0.0007467269897460938,0.04491700232028961,-0.005570545792579651
1729114733163735300,23.4197353515625,-0.009586334228515625,0.04271804541349411,-0.011517524719238281
1729114733201669600,23.457669677734376,-0.000637054443359375,0.03606976568698883,-0.003271833062171936
1729114733239604200,23.495604248046874,-0.013884544372558594,0.03671850264072418,-0.015621289610862732
1729114733277538600,23.53353857421875,0.013871192932128906,0.019574880599975586,-0.0013018250465393066
1729114733315473000,23.571472900390624,0.006472587585449219,0.014966562390327454,-0.0188027024269104
1729114733353407500,23.609407470703125,0.0033903121948242188,0.02630353718996048,0.011937156319618225
1729114733391341800,23.647341796875,-0.0031280517578125,0.021720245480537415,-0.0008398294448852539
1729114733429276200,23.685276123046876,0.015551567077636719,0.003472268581390381,-0.008158698678016663
1729114733467210800,23.723210693359373,0.05129241943359375,0.057181864976882935,-0.10140947997570038
1729114733505145000,23.76114501953125,0.0023775100708007812,0.4209994077682495,-0.035757213830947876
1729114733543079400,23.799079345703124,0.029388427734375,0.7549372911453247,0.021577417850494385
1729114733581014000,23.837013916015625,-0.07801151275634766,1.179132342338562,0.03402674198150635
1729114733618948400,23.8749482421875,0.02525806427001953,0.8320187330245972,0.2321321815252304
1729114733656883000,23.912883056640624,0.07348346710205078,0.8194893598556519,-0.09979836642742157
1729114733694817300,23.9508173828125,0.22809791564941406,0.9414746761322021,-0.1489417999982834
1729114733732751600,23.988751708984374,-0.30130577087402344,1.3884029388427734,0.038492217659950256
1729114733770686200,24.026686279296875,0.6199207305908203,1.0630658864974976,0.0359402596950531
1729114733808620500,24.06462060546875,0.1064300537109375,1.2358486652374268,-0.0997619479894638
1729114733846555000,24.102554931640626,0.505803108215332,0.9916917085647583,-0.03667539358139038
1729114733884489500,24.140489501953127,0.10412216186523438,1.5624890327453613,0.5819698572158813
1729114733922423800,24.178423828125,-3.921569347381592,1.6891182661056519,0.020294860005378723
1729114733960358100,24.216358154296874,-4.519561290740967,1.2997996807098389,-0.16082245111465454
1729114733998292700,24.254292724609375,1.2938051223754883,-0.16531109809875488,-0.2747730016708374
1729114734036227000,24.29222705078125,-3.034775733947754,0.976249635219574,0.14952734112739563
1729114734074161400,24.330161376953125,-1.2393856048583984,0.589024007320404,0.33993178606033325
1729114734112096000,24.368095947265626,0.20323944091796875,0.19277173280715942,0.12446306645870209
1729114734150030300,24.4060302734375,-0.8690280914306641,0.21278595924377441,-0.2839345932006836
1729114734187965000,24.44396484375,1.9515047073364258,-0.14438629150390625,0.28231948614120483
1729114734225899300,24.481899169921874,0.10153388977050781,-0.7973746061325073,0.11706118285655975
1729114734263833600,24.51983349609375,0.006098747253417969,-0.1847096085548401,0.2538629174232483
1729114734301768200,24.557768310546876,-0.5615978240966797,0.3004801273345947,0.24354800581932068
1729114734339702500,24.59570263671875,1.0944099426269531,-0.3658480644226074,-0.10734248161315918
1729114734377637000,24.63363720703125,-2.6034765243530273,-0.7296427488327026,-0.4380447268486023
1729114734415571500,24.671571533203124,-0.5556869506835938,-1.3774137496948242,-0.12778738141059875
1729114734453505800,24.709505859375,3.0408315658569336,-1.0323811769485474,0.3578842282295227
1729114734491440400,24.7474404296875,-3.330807685852051,-0.20656061172485352,-0.12582966685295105
1729114734529374700,24.785374755859376,1.4954376220703125,-1.4729164838790894,-0.09600970149040222
1729114734567309000,24.82330908203125,-4.631659507751465,-0.06574910879135132,-0.08683803677558899
1729114734605243600,24.86124365234375,-2.2129669189453125,-0.6002780795097351,0.07845453917980194
1729114734643178000,24.899177978515624,5.318900108337402,-1.511258840560913,1.014944314956665
1729114734681112300,24.9371123046875,-1.196136474609375,-0.38057613372802734,0.2828720211982727
1729114734719047000,24.975046875,0.27874755859375,-0.3410654067993164,0.3946087956428528
1729114734756981200,25.012981201171876,-0.2556724548339844,-0.17427653074264526,-0.1420237123966217
1729114734794915600,25.05091552734375,-1.790456771850586,-0.19855177402496338,-0.8024424314498901
1729114734832850200,25.08885009765625,2.5275774002075195,-1.197421908378601,0.21085986495018005
1729114734870784500,25.126784423828123,-3.6562228202819824,-0.08988136053085327,-0.24970021843910217
1729114734908719000,25.164718994140625,-1.292738914489746,-1.2831058502197266,-0.05687233805656433
1729114734946653400,25.2026533203125,1.1028213500976562,-0.8406773805618286,-0.5194873809814453
1729114734984587800,25.240587890625,-5.573557376861572,-0.35072651505470276,-1.1269255876541138
1729114735022522400,25.2785224609375,1.7668075561523438,-1.9318535327911377,-0.25075802206993103
1729114735060456700,25.316456787109374,0.23097705841064453,-1.6156396865844727,-0.9475675821304321
1729114735098391000,25.35439111328125,-2.050473690032959,-1.7443712949752808,-1.5365580320358276
1729114735136325600,25.39232568359375,0.6934471130371094,-1.7594166994094849,-1.9361180067062378
1729114735174260000,25.430260009765625,-0.6706905364990234,-1.0258647203445435,-1.2756714820861816
1729114735212194600,25.468194580078126,-0.10027408599853516,-0.22036322951316833,-0.767107367515564
1729114735250129000,25.50612890625,0.7728672027587891,-0.3630834221839905,-0.7297165989875793
1729114735288063200,25.544063232421873,0.04826164245605469,-1.1094841957092285,-0.821751594543457
1729114735325997800,25.581997802734374,0.5858898162841797,-1.7410309314727783,-0.793437123298645
1729114735363932200,25.61993212890625,-0.6450366973876953,-1.2415647506713867,-1.3939249515533447
1729114735401866500,25.657866455078125,0.22429656982421875,-0.48119062185287476,-0.8093444108963013
1729114735439801000,25.695801025390626,0.12323856353759766,0.17529988288879395,-1.2450343370437622
1729114735477735400,25.7337353515625,-1.1524152755737305,0.3228144347667694,-1.735579490661621
1729114735515669800,25.771669677734376,1.0583925247192383,-0.902596116065979,-0.6695954203605652
1729114735553604400,25.809604248046874,-0.8690738677978516,-0.9817209243774414,-0.10575881600379944
1729114735591538700,25.84753857421875,0.21265411376953125,-0.4099230170249939,0.39670586585998535
1729114735629473000,25.88547314453125,0.19979095458984375,1.283792495727539,0.6892358660697937
1729114735667407600,25.92340771484375,-2.7330756187438965,2.191899061203003,0.6354391574859619
1729114735705342000,25.961342041015627,0.9656867980957031,1.775901436805725,2.384303331375122
1729114735743276500,25.999276611328124,1.7484626770019531,1.585960865020752,1.5053484439849854
1729114735781211000,26.0372109375,-1.7827749252319336,1.841367483139038,0.889640748500824
1729114735819145200,26.075145263671875,0.8730201721191406,0.1811886429786682,0.5425204634666443
1729114735857079800,26.113079833984376,1.5055818557739258,-0.18708115816116333,1.8616247177124023
1729114735895014100,26.15101416015625,0.05963611602783203,0.28335505723953247,1.6561686992645264
1729114735932948700,26.18894873046875,1.788661003112793,0.09701955318450928,1.9315763711929321
1729114735970883000,26.226883056640624,-0.18102359771728516,0.42004990577697754,1.4091774225234985
1729114736008817400,26.2648173828125,1.1435127258300781,0.17064660787582397,2.576228618621826
1729114736046752000,26.302751953125,-3.594240665435791,-0.3485028147697449,0.21708860993385315
1729114736084686300,26.340686279296875,-1.0227432250976562,-0.06597983837127686,1.6061499118804932
1729114736122620700,26.37862060546875,0.32498931884765625,-0.6429651975631714,0.7035953998565674
1729114736160555300,26.41655517578125,-0.7386684417724609,0.5738868713378906,1.5302529335021973
1729114736198489600,26.454489501953127,-0.14678001403808594,-1.1559464931488037,0.5488185882568359
1729114736236424000,26.492423828125,-0.17453861236572266,-0.5126140713691711,0.6015110015869141
1729114736274358500,26.530358642578125,-0.037802696228027344,0.1828690767288208,0.38749003410339355
1729114736312292900,26.56829296875,0.7617702484130859,-0.5618698596954346,1.3604662418365479
1729114736350227200,26.606227294921876,2.1350669860839844,-0.09583902359008789,0.7921897172927856
1729114736388161800,26.644161865234373,-0.6142330169677734,-0.053638994693756104,1.1896122694015503
1729114736426096000,26.68209619140625,-0.12120819091796875,-0.7345592379570007,0.337965190410614
1729114736464030700,26.72003076171875,0.31919193267822266,-0.8227981328964233,0.47494709491729736
1729114736501965000,26.757965087890625,-1.6106548309326172,1.5031962394714355,0.42014485597610474
1729114736539899400,26.7958994140625,-2.3630423545837402,-0.5002648830413818,2.320071220397949
1729114736577834000,26.833833984375,3.982311248779297,-1.6136738061904907,0.901923656463623
1729114736615768300,26.871768310546877,-0.05763721466064453,-0.07241794466972351,1.2431901693344116
1729114736653702700,26.90970263671875,1.5470294952392578,-0.3047328293323517,1.4490101337432861
1729114736691637200,26.94763720703125,0.8151302337646484,-0.32777053117752075,1.1084394454956055
1729114736729571600,26.985571533203125,-4.088629722595215,-0.2905915379524231,-0.026966676115989685
1729114736767506200,27.023506103515626,-0.7522211074829102,0.24154147505760193,-0.03681691735982895
1729114736805440500,27.0614404296875,0.557002067565918,-0.6320725679397583,0.35800760984420776
1729114736843374800,27.099374755859376,-1.6414203643798828,-1.1330797672271729,1.0232124328613281
1729114736881309400,27.137309326171874,-2.4934568405151367,0.15011706948280334,0.5215879082679749
1729114736919243800,27.175243896484375,2.4786758422851562,-1.1704620122909546,0.4175680875778198
1729114736957178000,27.21317822265625,0.05954551696777344,0.000957682728767395,0.17118701338768005
1729114736995112700,27.25111279296875,1.3172359466552734,-0.4896310269832611,0.834930419921875
1729114737033047000,27.289047119140626,1.7254533767700195,-1.7273600101470947,0.057971082627773285
1729114737070981600,27.326981689453124,1.5199527740478516,-1.5531870126724243,-0.5205779075622559
1729114737108916000,27.364916015625,-0.6089258193969727,-0.5360666513442993,-0.7253281474113464
1729114737146850300,27.402850341796874,1.755624771118164,-1.7287942171096802,-0.3182830810546875
1729114737184785000,27.440784912109375,-0.5684061050415039,-1.5892893075942993,-1.413565993309021
1729114737222719200,27.47871923828125,0.23466873168945312,-0.36297452449798584,-1.10332453250885
1729114737260653600,27.516653564453126,0.4136619567871094,-0.5899658203125,-1.7292605638504028
1729114737298588200,27.554588134765623,0.7618017196655273,-1.238335132598877,-2.0177595615386963
1729114737336522500,27.5925224609375,-0.8714447021484375,-1.8534642457962036,-2.9189510345458984
1729114737374456800,27.630456787109374,0.9581804275512695,-1.7996852397918701,-1.1266212463378906
1729114737412391400,27.668391357421875,-1.8520879745483398,-1.8803423643112183,-1.5858631134033203
1729114737450325800,27.70632568359375,0.05818653106689453,-1.6086468696594238,-1.7720927000045776
1729114737488260400,27.74426025390625,-0.8826923370361328,-1.3294281959533691,-1.7301363945007324
1729114737526194700,27.782194580078126,1.3205585479736328,-0.6041213870048523,-1.2902226448059082
1729114737564129000,27.82012890625,0.2208099365234375,0.22096365690231323,-0.9529915452003479
1729114737602063600,27.858063720703125,0.2892427444458008,0.09780119359493256,-1.395085096359253
1729114737639998000,27.895998046875,-3.0742359161376953,-1.2261472940444946,-6.247287750244141
1729114737677932500,27.9339326171875,0.8651161193847656,-0.06548476964235306,-1.7576322555541992
1729114737715867000,27.971866943359377,-0.4267234802246094,-0.06851983815431595,-1.0281691551208496
1729114737753801200,28.00980126953125,1.4395275115966797,-0.3122027814388275,0.6983646154403687
1729114737791735800,28.04773583984375,-1.3598527908325195,0.787211000919342,1.1255589723587036
1729114737829670100,28.085670166015625,1.0640888214111328,1.228447675704956,0.36823737621307373
1729114737867604500,28.1236044921875,-3.0081143379211426,1.7289079427719116,-1.257603406906128
1729114737905539000,28.1615390625,3.9474477767944336,1.0045665502548218,-0.8470804691314697
1729114737943473400,28.199473388671876,1.5476570129394531,1.6812613010406494,1.9798208475112915
1729114737981407700,28.23740771484375,0.9194707870483398,1.0636317729949951,3.4403326511383057
1729114738019342300,28.27534228515625,0.9388046264648438,0.2757496237754822,0.42139825224876404
1729114738057276700,28.313276611328124,-3.0254693031311035,0.611771821975708,-0.6735746264457703
1729114738095211000,28.3512109375,0.8166751861572266,0.12502539157867432,-0.11839175224304199
1729114738133145600,28.3891455078125,-1.9719161987304688,0.22036582231521606,0.3866860270500183
1729114738171080000,28.427079833984376,0.41718101501464844,-0.7978036403656006,-0.273811936378479
1729114738209014300,28.46501416015625,-2.791447162628174,0.7325658798217773,0.245187908411026
1729114738246948900,28.502948974609374,0.2861824035644531,-0.1445717215538025,0.5926013588905334
1729114738284883200,28.54088330078125,1.2913923263549805,-1.639411449432373,0.5628572702407837
1729114738322817800,28.57881787109375,-0.14216899871826172,0.23077838122844696,0.2750614583492279
1729114738360752000,28.616752197265626,-2.443991184234619,-0.4221946597099304,-0.16744408011436462
1729114738398686500,28.6546865234375,0.7605037689208984,-1.5781587362289429,0.3980928063392639
1729114738436621000,28.69262109375,1.1599540710449219,0.031067371368408203,0.00141945481300354
1729114738474555400,28.730555419921874,0.8524456024169922,-0.05734206736087799,0.9909032583236694
1729114738512490000,28.768489990234375,2.477505683898926,-0.9419440031051636,0.07251560688018799
1729114738550424300,28.80642431640625,-1.4001245498657227,0.20239099860191345,0.3476162552833557
1729114738588358700,28.844358642578126,-0.005021095275878906,-1.4412450790405273,0.3743092715740204
1729114738626293200,28.882293212890627,-0.10167598724365234,-1.2908481359481812,0.26658928394317627
1729114738664227600,28.9202275390625,3.690239906311035,-0.7054247856140137,0.698143720626831
1729114738702162000,28.958161865234374,-2.237306594848633,0.027669310569763184,1.3921329975128174
1729114738740096500,28.996096435546875,0.3912649154663086,-1.9599013328552246,0.5941068530082703
1729114738778030800,29.03403076171875,2.310276985168457,-1.3824492692947388,1.1264564990997314
1729114738815965200,29.071965087890625,-0.5546064376831055,0.04906386137008667,1.540823221206665
1729114738853899800,29.109899658203126,1.6302995681762695,-0.8258905410766602,1.1357791423797607
1729114738891834000,29.147834228515624,-2.0555830001831055,-0.474407434463501,0.7745830416679382
1729114738929768700,29.185768798828125,2.1411590576171875,-0.7588273286819458,2.1515491008758545
1729114738967703000,29.223703125,-4.441624164581299,-0.2428547739982605,0.6802024245262146
1729114739005637400,29.261637451171875,0.8540325164794922,-1.5510913133621216,0.4435504078865051
1729114739043572000,29.299572021484376,1.8933801651000977,-0.5302709341049194,1.5698328018188477
1729114739081506300,29.33750634765625,-0.21848011016845703,-0.7028501629829407,1.024073600769043
1729114739119440600,29.375440673828123,1.201664924621582,-0.19600775837898254,1.538369059562683
1729114739157375200,29.413375244140624,-2.4830803871154785,0.9143058061599731,1.4608402252197266
1729114739195309600,29.4513095703125,3.9454498291015625,-1.57415771484375,1.4755041599273682
1729114739233244200,29.489244140625,2.174628257751465,-0.8760687112808228,1.8682634830474854
1729114739271178500,29.527178466796876,-2.1584854125976562,-0.5241889357566833,1.7154567241668701
1729114739309112800,29.56511279296875,2.4490108489990234,-1.0247162580490112,1.2395468950271606
1729114739347047400,29.60304736328125,0.6712436676025391,-0.4625195562839508,1.2363711595535278
1729114739384981800,29.640981689453124,0.512263298034668,-0.8376418948173523,1.3913105726242065
1729114739422916000,29.678916015625,-0.30884361267089844,-0.9644800424575806,1.1145310401916504
1729114739460850700,29.7168505859375,1.5590763092041016,-1.0599595308303833,0.4420354962348938
1729114739498785000,29.754784912109375,-3.2353835105895996,-1.373396396636963,-1.3443598747253418
1729114739536719600,29.7927197265625,2.7058115005493164,-0.9848791360855103,-0.48304685950279236
1729114739574654000,29.830654052734374,-2.9251065254211426,-1.268040657043457,-0.22422774136066437
1729114739612588300,29.86858837890625,3.0532617568969727,-2.375662326812744,-0.21605591475963593
1729114739650523000,29.90652294921875,-0.9691047668457031,-1.761711597442627,-0.6945673823356628
1729114739688457200,29.944457275390626,0.8993816375732422,-1.8303682804107666,-0.45624640583992004
1729114739726391600,29.9823916015625,0.037896156311035156,-1.9986939430236816,-0.30233198404312134
1729114739764326100,30.020326171875,-0.0484466552734375,-2.0897562503814697,-0.09152517467737198
1729114739802260500,30.058260498046874,-0.36034584045410156,-1.9214164018630981,0.1899515688419342
1729114739840194800,30.09619482421875,-0.20331382751464844,-1.773565649986267,0.13676705956459045
1729114739878129400,30.13412939453125,-0.12461376190185547,-2.059241533279419,-0.3064761757850647
1729114739916063700,30.172063720703125,0.019250869750976562,-1.6898671388626099,-0.11788368970155716
1729114739953998000,30.209998046875,-0.061150550842285156,-1.427048921585083,-0.5417924523353577
1729114739991932700,30.2479326171875,-0.0311126708984375,-1.1104886531829834,-0.12350334227085114
1729114740029867000,30.285866943359373,-0.06390953063964844,-0.5960695743560791,-0.22854430973529816
1729114740067801600,30.323801513671874,-0.03388214111328125,-0.14403986930847168,-0.3547827899456024
1729114740105736000,30.36173583984375,-0.01970958709716797,0.2133035510778427,-0.31052759289741516
1729114740143670300,30.399670166015625,0.015322685241699219,0.4677738845348358,0.04783974960446358
1729114740181604900,30.43760498046875,-0.12169933319091797,0.6176755428314209,0.1069379523396492
1729114740219539200,30.475539306640623,0.0638895034790039,0.6524914503097534,-0.2899755835533142
1729114740257473800,30.513473876953125,-0.021289825439453125,0.7120287418365479,-0.1783750206232071
1729114740295408000,30.551408203125,0.050167083740234375,0.672626256942749,-0.18389494717121124
1729114740333342500,30.589342529296875,-0.02508544921875,0.510482907295227,-0.19242346286773682
1729114740371277000,30.627277099609376,0.012318611145019531,0.3653036952018738,-0.07712085545063019
1729114740409211400,30.66521142578125,-0.022156715393066406,0.2404571771621704,-0.16743749380111694
1729114740447145700,30.703145751953127,0.008005142211914062,0.1506371945142746,-0.08860220015048981
1729114740485080300,30.741080322265624,-0.008047103881835938,0.08824095129966736,-0.10266147553920746
1729114740523014700,30.7790146484375,0.011037826538085938,0.06152484565973282,-0.07730168104171753
1729114740560949200,30.81694921875,-0.0005750656127929688,0.0375664159655571,-0.07317759096622467
1729114740598883600,30.854883544921876,-0.005534172058105469,0.025240972638130188,-0.08093596994876862
1729114740636818000,30.89281787109375,-0.0010433197021484375,0.03574937582015991,-0.06580767035484314
1729114740674752500,30.93075244140625,-0.0013055801391601562,0.0452234223484993,-0.06364071369171143
1729114740712686800,30.968686767578124,-0.0030498504638671875,0.060706816613674164,-0.04118405282497406
1729114740750621200,31.00662109375,-0.0116424560546875,0.0832047089934349,-0.04315648972988129
1729114740788555800,31.0445556640625,-0.009128570556640625,0.09897811710834503,-0.03373609483242035
1729114740826490000,31.082489990234375,0.011957168579101562,0.07852239161729813,-0.030508235096931458
1729114740864424700,31.1204248046875,-0.0022716522216796875,0.06578613817691803,-0.0382830947637558
1729114740902359000,31.158359130859374,0.009782791137695312,0.056018076837062836,-0.02562190592288971
1729114740940293400,31.19629345703125,-0.0073490142822265625,0.04531487077474594,-0.013867542147636414
1729114740978228000,31.23422802734375,-0.008939743041992188,0.0450439527630806,-0.027082815766334534
1729114741016162300,31.272162353515625,0.016269683837890625,0.03841695189476013,-0.006460621953010559
1729114741054096600,31.3100966796875,-0.011492729187011719,0.014670558273792267,-0.027744412422180176
1729114741092031200,31.34803125,-0.0022001266479492188,0.019383378326892853,0.020626351237297058
1729114741129965600,31.385965576171873,0.06488227844238281,0.058146268129348755,0.17011624574661255
1729114741167900000,31.42389990234375,-0.19221973419189453,0.1989751160144806,0.1565542370080948
1729114741205834500,31.46183447265625,-0.00033664703369140625,0.014905251562595367,0.2439359724521637
1729114741243768800,31.499768798828125,0.22836589813232422,0.05469230189919472,0.7442800998687744
1729114741281703400,31.537703369140626,-0.07627487182617188,-0.10209057480096817,0.6788699626922607
1729114741319637800,31.5756376953125,0.21044635772705078,-0.04971852898597717,0.6900776624679565
1729114741357572000,31.613572021484377,-0.11383438110351562,0.2372751533985138,1.0765196084976196
1729114741395506700,31.651506591796874,0.45081138610839844,-0.22424602508544922,0.1774662882089615
1729114741433441000,31.68944091796875,0.1269369125366211,-0.425246000289917,0.04159168899059296
1729114741471375600,31.727375732421876,0.029758453369140625,-0.370290070772171,-0.1572328358888626
1729114741509310000,31.76531005859375,-0.31177711486816406,-0.3325155973434448,-0.5483527779579163
1729114741547244300,31.803244384765627,0.23192310333251953,-0.7412459850311279,-1.0742658376693726
1729114741585179000,31.841178955078124,-0.2806272506713867,-0.31142371892929077,-0.44872501492500305
1729114741623113200,31.87911328125,0.3872947692871094,-0.6825670599937439,-0.9800708889961243
1729114741661047600,31.917047607421875,0.3824930191040039,-0.6901479959487915,-0.859121561050415
1729114741698982100,31.954982177734376,-0.0060024261474609375,-0.6031027436256409,-0.2931737005710602
1729114741736916500,31.99291650390625,-0.13023090362548828,-0.3130863606929779,-0.24493537843227386
1729114741774851000,32.03085107421875,-0.1412057876586914,-0.2654271423816681,-0.3286563456058502
1729114741812785400,32.068785400390624,-0.12885761260986328,-0.10586698353290558,0.16367995738983154
1729114741850719700,32.1067197265625,0.16989898681640625,-0.46213942766189575,-0.24983146786689758
1729114741888654300,32.144654296875,0.07261371612548828,-0.2512490749359131,0.021605417132377625
1729114741926588700,32.182588623046875,0.1590557098388672,-0.33247965574264526,-0.3035711348056793
1729114741964523300,32.22052319335938,-0.13519573211669922,-0.14487425982952118,-0.3057684898376465
1729114742002457600,32.25845751953125,-0.08000659942626953,-0.2697703242301941,-0.20920412242412567
1729114742040392000,32.29639184570313,0.08646202087402344,-0.1385132521390915,0.1380528211593628
1729114742078326500,32.33432641601563,-0.08251476287841797,-0.30341264605522156,-0.43284115195274353
1729114742116260900,32.3722607421875,0.03269481658935547,-0.17173607647418976,-0.15022000670433044
1729114742154195500,32.41019555664062,0.15424823760986328,-0.3252398669719696,-0.364368200302124
1729114742192129800,32.4481298828125,-0.04504871368408203,-0.1985909640789032,-0.0045798360370099545
1729114742230064000,32.486064208984374,-0.24907684326171875,-0.0894683301448822,-0.26261499524116516
1729114742267998700,32.523998779296875,-0.20510387420654297,-0.2042769193649292,-0.24756227433681488
1729114742305933000,32.56193310546875,-0.0597381591796875,-0.22622552514076233,-0.009504253044724464
1729114742343867600,32.59986767578125,-0.11395931243896484,-0.3638663589954376,-0.3605058491230011
1729114742381802000,32.637802001953126,0.123443603515625,-0.05729544162750244,-0.05789210647344589
1729114742419736300,32.675736328125,0.016160964965820312,-0.29318317770957947,-0.21731726825237274
1729114742457671000,32.7136708984375,-0.15024185180664062,-0.08415737748146057,-0.3078707456588745
1729114742495605200,32.75160522460938,0.08643531799316406,-0.15299281477928162,-0.12753990292549133
1729114742533539600,32.78953955078125,0.015486717224121094,-0.15851497650146484,-0.09418632090091705
1729114742571474200,32.82747412109375,-0.08083152770996094,-0.05835440754890442,-0.21428826451301575
1729114742609408500,32.86540844726562,-0.010549545288085938,-0.146714448928833,-0.31249815225601196
1729114742647343000,32.90334301757812,0.15740394592285156,-0.05420053005218506,0.015633929520845413
1729114742685277400,32.94127734375,-0.18036651611328125,-0.1376131772994995,-0.2851361036300659
1729114742723211800,32.979211669921874,0.025547027587890625,-0.01253095269203186,-0.017598114907741547
1729114742761146400,33.017146484375,0.08965682983398438,-0.16145357489585876,-0.5014892816543579
1729114742799080700,33.055080810546876,-0.18868637084960938,0.06676718592643738,-0.9680725932121277
1729114742837015300,33.09301538085938,-0.046909332275390625,-0.034334391355514526,-2.038835048675537
1729114742874949600,33.13094970703125,-0.05655193328857422,0.17871761322021484,-1.746132493019104
1729114742912884000,33.16888403320313,-0.05547142028808594,0.13339455425739288,-1.2148674726486206
1729114742950818600,33.20681860351562,-0.20690059661865234,0.530488133430481,0.17373812198638916
1729114742988753000,33.2447529296875,0.02057647705078125,0.2476930320262909,0.42317283153533936
1729114743026687500,33.2826875,-0.1184225082397461,0.32113543152809143,-0.2159227877855301
1729114743064621800,33.32062182617187,0.1108846664428711,0.23756739497184753,0.015271082520484924
1729114743102556200,33.35855615234375,-0.07415294647216797,0.27603763341903687,0.055951520800590515
1729114743140490800,33.39649072265625,0.12063884735107422,0.23178629577159882,-0.0149850994348526
1729114743178425000,33.434425048828125,-0.07674312591552734,0.28280341625213623,0.04439257085323334
1729114743216359400,33.472359375,0.00930023193359375,0.2148727923631668,0.01570017635822296
1729114743254294000,33.5102939453125,-0.049991607666015625,0.22070671617984772,-0.0004643648862838745
1729114743292228400,33.548228271484376,0.03328227996826172,0.1925368756055832,0.02759230136871338
1729114743330163000,33.58616284179688,-0.017920494079589844,0.1705135554075241,-0.016262605786323547
1729114743368097300,33.62409716796875,0.031624794006347656,0.15837204456329346,0.034491926431655884
1729114743406031600,33.66203149414063,-0.013368606567382812,0.138137087225914,-0.006577089428901672
1729114743443966200,33.69996630859375,-0.001373291015625,0.12787802517414093,0.03748007118701935
1729114743481900500,33.73790063476562,-0.005496978759765625,0.10340017825365067,-0.005145162343978882
1729114743519835100,33.775835205078124,0.0055217742919921875,0.09930357336997986,0.0134848952293396
1729114743557769500,33.81376953125,-0.017183303833007812,0.08482486009597778,0.003972351551055908
1729114743595703800,33.851703857421874,-0.0006313323974609375,0.07605552673339844,0.010459065437316895
1729114743633638400,33.889638427734376,0.01675701141357422,0.029139764606952667,-0.033482640981674194
1729114743671572700,33.92757275390625,0.052349090576171875,0.22853319346904755,-0.006675347685813904
1729114743709507300,33.96550732421875,0.09200191497802734,0.31415969133377075,-0.09892617166042328
1729114743747441700,34.00344165039063,0.02398395538330078,0.7152660489082336,-0.0005225539207458496
1729114743785376000,34.0413759765625,0.06585979461669922,1.0353883504867554,-0.0905105471611023
1729114743823310600,34.079310546875,0.11349773406982422,1.3047161102294922,-0.2628779411315918
1729114743861245000,34.11724487304687,0.2146167755126953,1.3829389810562134,-0.2550625205039978
1729114743899179500,34.15517944335937,0.3622932434082031,1.4003536701202393,0.06257469207048416
1729114743937113900,34.19311376953125,-0.15616130828857422,1.2985116243362427,-0.15722332894802094
1729114743975048200,34.23104809570312,0.04604530334472656,1.5084640979766846,0.0017587393522262573
1729114744012982800,34.268982666015624,-0.8903474807739258,1.2751907110214233,-0.6887412071228027
1729114744050917000,34.306917236328125,0.5106830596923828,0.8604892492294312,-0.0488765686750412
1729114744088851500,34.3448515625,-1.2694454193115234,0.8449566960334778,-0.17536762356758118
1729114744126786000,34.3827861328125,0.6022577285766602,0.36326056718826294,-0.24985702335834503
1729114744164720400,34.42072045898438,-0.0895547866821289,-0.38733920454978943,-0.5971306562423706
1729114744202655000,34.45865502929688,1.3556299209594727,0.18711793422698975,0.05376553535461426
1729114744240589300,34.49658935546875,4.829535484313965,0.47104424238204956,0.5979280471801758
1729114744278523600,34.53452368164063,-3.1331615447998047,0.4061904549598694,-0.2063724398612976
1729114744316458200,34.57245825195312,0.19763660430908203,0.10413539409637451,-0.25349336862564087
1729114744354392600,34.610392578125,-0.9619998931884766,-0.4968946576118469,-1.1348297595977783
1729114744392327200,34.6483271484375,-1.58154296875,0.15976393222808838,-0.7809386253356934
1729114744430261500,34.686261474609374,2.543593406677246,-0.017748773097991943,-0.4121477007865906
1729114744468195800,34.72419580078125,0.4416313171386719,0.5589812397956848,-0.1033230870962143
1729114744506130400,34.76213037109375,0.5422754287719727,1.0866680145263672,-0.4055645763874054
1729114744544064800,34.800064697265626,1.4915618896484375,0.3585607409477234,-0.5685137510299683
1729114744581999400,34.83799926757813,2.6188955307006836,-0.2657257616519928,-0.3020252585411072
1729114744619933700,34.87593359375,-1.291290283203125,1.4674041271209717,0.5760021805763245
1729114744657868000,34.91386791992188,-0.06112480163574219,0.9226694107055664,0.33773744106292725
1729114744695802600,34.951802734375,-1.9738597869873047,0.8141104578971863,-0.5239842534065247
1729114744733737000,34.98973706054687,-0.6508979797363281,0.9291514158248901,0.5102258920669556
1729114744771671600,35.02767163085937,-0.42096424102783203,0.08901429176330566,1.3950289487838745
1729114744809606000,35.06560595703125,-0.9961519241333008,0.2935701608657837,0.2080429643392563
1729114744847540500,35.10354052734375,-3.352330207824707,-0.070759117603302,-0.4812217354774475
1729114744885474800,35.141474853515625,4.406030654907227,-0.6809707880020142,0.40761128067970276
1729114744923409200,35.1794091796875,-0.39458179473876953,-0.6175203919410706,1.3730520009994507
1729114744961343700,35.21734375,-1.7961959838867188,-0.7479494214057922,-0.09388250857591629
1729114744999278000,35.25527807617188,0.2355213165283203,-1.0139355659484863,0.8085938096046448
1729114745037212700,35.29321264648438,-0.4701414108276367,-0.521166980266571,1.2506636381149292
1729114745075147000,35.33114697265625,1.0347118377685547,-0.8056812286376953,1.4504375457763672
1729114745113081300,35.36908129882813,-0.35596179962158203,-1.1189135313034058,0.54716557264328
1729114745151016000,35.40701586914062,1.0531892776489258,-1.003866195678711,0.9904404282569885
1729114745188950300,35.4449501953125,-1.3938970565795898,-0.2534465789794922,1.599674105644226
1729114745226884900,35.482884765625,1.0285730361938477,-1.68070387840271,2.2199647426605225
1729114745264819200,35.520819091796874,0.8160867691040039,-0.628341019153595,1.790834903717041
1729114745302753500,35.55875341796875,-2.5451231002807617,-0.3406267762184143,1.1361420154571533
1729114745340688100,35.596688232421876,3.872303009033203,-1.0646193027496338,1.8445581197738647
1729114745378622500,35.63462255859375,-0.6389751434326172,0.10781806707382202,1.748034954071045
1729114745416557000,35.67255712890625,-0.3067646026611328,-0.15965455770492554,1.3037105798721313
1729114745454491400,35.71049145507813,1.1766138076782227,-0.9774386286735535,0.6273193955421448
1729114745492425700,35.74842578125,-1.340108871459961,-0.6581834554672241,0.7372872829437256
1729114745530360300,35.7863603515625,-0.9408645629882812,-1.0310490131378174,0.3684060871601105
1729114745568294700,35.82429467773437,-1.243438720703125,-0.4095091223716736,1.1948347091674805
1729114745606229200,35.86222924804687,0.9369659423828125,0.011729687452316284,1.3951880931854248
1729114745644163600,35.90016357421875,-0.07456016540527344,-1.0970807075500488,0.09067083150148392
1729114745682098000,35.93809790039062,1.0292282104492188,-0.8170903325080872,0.45640069246292114
1729114745720032500,35.976032470703124,2.130809783935547,-0.09298780560493469,0.12125792354345322
1729114745757966800,36.013966796875,-2.7235288619995117,0.3077501058578491,-0.5256184935569763
1729114745795901400,36.0519013671875,1.6593389511108398,-1.3226182460784912,0.34849730134010315
1729114745833835800,36.089835693359376,-0.3169221878051758,-0.8806244730949402,1.052067518234253
1729114745871770000,36.12777001953125,4.131559371948242,-0.2920277416706085,-0.3611515462398529
1729114745909704700,36.16570458984375,-1.591261863708496,0.023658007383346558,1.3016197681427002
1729114745947639000,36.20363916015625,-0.26592350006103516,-0.5869531035423279,-0.7501756548881531
1729114745985573600,36.24157373046875,-0.3362894058227539,-1.0201568603515625,-0.09400597959756851
1729114746023508000,36.27950805664062,-1.2361726760864258,-0.10474690794944763,-0.2800197899341583
1729114746061442600,36.317442626953124,1.5033550262451172,-0.7715609669685364,0.061689577996730804
1729114746099377000,36.355376953125,0.5841035842895508,-1.6114957332611084,-0.42042094469070435
1729114746137311200,36.393311279296874,3.757261276245117,-0.38206252455711365,-0.35555320978164673
1729114746175245800,36.431245849609375,-3.413184642791748,0.2563438415527344,-0.6196105480194092
1729114746213180200,36.46918017578125,1.3264827728271484,-1.1218857765197754,-0.8418542146682739
1729114746251114800,36.50711474609375,-1.8971853256225586,-1.8172783851623535,-0.9095266461372375
1729114746289049000,36.54504907226563,2.753647804260254,0.5878779888153076,-0.5591366291046143
1729114746326983700,36.58298364257813,-2.266303539276123,0.2816184163093567,-1.0763040781021118
1729114746364918000,36.62091796875,1.7496652603149414,-2.2001748085021973,-1.6050570011138916
1729114746402852400,36.65885229492188,0.18157291412353516,-1.5599534511566162,-0.7397788763046265
1729114746440787000,36.69678686523437,0.6867103576660156,-0.34836041927337646,-2.0666897296905518
1729114746478721300,36.73472119140625,-2.2093582153320312,0.011101484298706055,-1.8754949569702148
1729114746516655900,36.77265576171875,0.27689170837402344,-0.9639360308647156,-1.8790277242660522
1729114746554590200,36.810590087890624,0.04867362976074219,-0.49327751994132996,-1.5221664905548096
1729114746592524500,36.848524658203125,-0.11087226867675781,-0.6681782603263855,-1.8045285940170288
1729114746630459100,36.886459228515626,0.09855175018310547,-1.2357343435287476,-1.1074931621551514
1729114746668393500,36.9243935546875,0.4349403381347656,-0.03339482843875885,-1.1444675922393799
1729114746706328000,36.962328125,-0.904052734375,-0.43979936838150024,-0.9417855739593506
1729114746744262400,37.00026245117188,-0.46863269805908203,-0.6596253514289856,-1.1298582553863525
1729114746782196700,37.03819677734375,0.20708656311035156,-0.749092161655426,-1.5556998252868652
1729114746820131300,37.07613134765625,-0.6049938201904297,-0.07167591154575348,-1.730621099472046
1729114746858065700,37.11406567382812,0.031090736389160156,0.1667640656232834,-1.3829925060272217
1729114746896000300,37.15200024414062,-0.8545112609863281,-0.3358217477798462,-1.176119089126587
1729114746933934600,37.1899345703125,2.1938676834106445,-1.5796312093734741,-0.4663029611110687
1729114746971869200,37.227869140625,-0.2707557678222656,-0.747654139995575,-0.8074951171875
1729114747009803500,37.265803466796875,-0.5660247802734375,0.4212180972099304,-0.4125675559043884
1729114747047738000,37.303738037109376,-0.37590980529785156,0.19415870308876038,-0.9301819801330566
1729114747085672400,37.34167236328125,1.7033300399780273,-0.35601961612701416,-0.3828617036342621
1729114747123606800,37.37960668945313,-1.4811182022094727,-0.06852810084819794,0.06935438513755798
1729114747161541400,37.41754125976563,1.2645092010498047,-1.5077053308486938,0.44462209939956665
1729114747199475700,37.45547583007812,-2.238036632537842,-0.23041801154613495,0.3011266589164734
1729114747237410300,37.49341040039062,-1.4582653045654297,0.12276016175746918,0.5804617404937744
1729114747275344600,37.5313447265625,0.7715845108032227,-0.4876064956188202,0.6910066604614258
1729114747313279000,37.56927905273437,-1.0336904525756836,-0.17664822936058044,0.1622798889875412
1729114747351213600,37.607213623046874,1.9402761459350586,-0.5264000296592712,0.18824049830436707
1729114747389148000,37.64514794921875,-0.6821756362915039,-0.48345229029655457,-0.2651587724685669
1729114747427082500,37.68308251953125,-0.25813961029052734,0.06957155466079712,1.1411762237548828
1729114747465016800,37.721016845703126,4.909322738647461,-1.0470726490020752,1.8929487466812134
1729114747502951200,37.758951171875,0.7750120162963867,-0.4482899308204651,1.227285385131836
1729114747540885800,37.7968857421875,-2.418031692504883,0.18519222736358643,0.9676514267921448
1729114747578820000,37.83482006835938,-1.2206077575683594,0.2615463137626648,1.3228288888931274
1729114747616754700,37.87275463867188,0.9992904663085938,-0.7584964632987976,1.1817668676376343
1729114747654689000,37.91068896484375,-0.9539480209350586,0.3434705138206482,1.4498733282089233
1729114747692623600,37.94862353515625,1.0687694549560547,-0.28760144114494324,1.1830180883407593
1729114747730558000,37.98655786132812,-3.1263856887817383,0.6964226961135864,1.493812084197998
1729114747768492500,38.024492431640624,-0.04207420349121094,0.06158064305782318,1.68043851852417
1729114747806427000,38.062427001953125,1.9890451431274414,-1.2137607336044312,1.0850921869277954
1729114747844361200,38.100361328125,-1.4203243255615234,0.1517251431941986,2.49454665184021
1729114747882295800,38.1382958984375,1.1234216690063477,-0.4423455595970154,1.6103389263153076
1729114747920230100,38.17623022460938,-1.6299753189086914,-0.524355947971344,1.6522098779678345
1729114747958164500,38.21416455078125,2.342252731323242,-0.6806827783584595,1.1771193742752075
1729114747996099000,38.25209912109375,-1.6839609146118164,-0.3171934187412262,1.4445308446884155
1729114748034033400,38.29003344726563,1.0072927474975586,-0.3808789849281311,1.7216936349868774
1729114748071968000,38.32796801757812,-3.5085997581481934,0.7153217792510986,1.5282448530197144
1729114748109902300,38.36590234375,1.9535188674926758,-0.618667721748352,2.175295114517212
1729114748147837000,38.4038369140625,0.6818342208862305,0.20619821548461914,2.223681688308716
1729114748185771300,38.441771240234374,-4.822275638580322,1.6135848760604858,1.5799505710601807
1729114748223705900,38.479705810546875,3.7360267639160156,-0.7113998532295227,2.0360209941864014
1729114748261640200,38.51764013671875,-0.9426164627075195,-0.3832832872867584,1.3041316270828247
1729114748299574800,38.55557470703125,1.0911245346069336,-0.6248272061347961,0.9522157311439514
1729114748337509000,38.59350903320313,0.7321567535400391,-0.39938995242118835,0.3658958971500397
1729114748375443500,38.631443359375,-2.733318328857422,-0.03839215636253357,0.6228803396224976
1729114748413378000,38.6693779296875,2.2102651596069336,-0.9299132823944092,1.1535283327102661
1729114748451312400,38.7073125,2.6784534454345703,-1.8265771865844727,1.3242096900939941
1729114748489246700,38.74524682617187,0.17972850799560547,-1.596156358718872,-1.6547093391418457
1729114748527181300,38.78318139648437,1.4530372619628906,-1.879427433013916,-2.8190248012542725
1729114748565115600,38.82111572265625,-0.5794286727905273,-1.7124251127243042,-0.5106416940689087
1729114748603050200,38.85905029296875,0.37511157989501953,-1.3363088369369507,-0.08680818229913712
1729114748640984600,38.896984619140625,-0.1643209457397461,-1.9027607440948486,0.014897990971803665
1729114748678919200,38.934919189453126,-0.5450353622436523,-1.5718958377838135,-0.5047677159309387
1729114748716853500,38.972853515625,1.152627944946289,-2.1033828258514404,-0.052652984857559204
1729114748754788000,39.0107880859375,-0.4280824661254883,-1.6209772825241089,-0.3205418884754181
1729114748792722400,39.04872241210938,0.39690113067626953,-1.9589163064956665,-0.2860642373561859
1729114748830657000,39.08665698242187,-0.34977149963378906,-2.4004228115081787,-0.6756129264831543
1729114748868591400,39.12459130859375,0.5120506286621094,-1.9804720878601074,0.2385351061820984
1729114748906525700,39.16252563476562,-0.20613956451416016,-1.9218584299087524,-0.3567681908607483
1729114748944460300,39.20046020507812,0.11695003509521484,-1.9024672508239746,-0.24495473504066467
1729114748982394600,39.23839453125,-0.13989925384521484,-1.9468340873718262,-0.6110536456108093
1729114749020329200,39.2763291015625,0.12076568603515625,-1.6075310707092285,-0.17468979954719543
1729114749058263600,39.314263671875,-0.0659780502319336,-0.9766279458999634,-0.16883303225040436
1729114749096198000,39.352197998046876,0.02266979217529297,-0.6026980876922607,-0.3081754744052887
1729114749134132500,39.39013256835938,-0.04044818878173828,-0.09804755449295044,-0.20517590641975403
1729114749172066800,39.42806689453125,0.0020170211791992188,0.26605451107025146,-0.3672464191913605
1729114749210001400,39.46600146484375,-0.03456878662109375,0.5410266518592834,-0.2614048719406128
1729114749247935700,39.50393579101563,-0.013551712036132812,0.6781129240989685,-0.21315747499465942
1729114749285870300,39.54187036132812,-0.10897445678710938,0.7970596551895142,0.014219043776392937
1729114749323804700,39.5798046875,0.23488807678222656,0.7915430665016174,0.36901378631591797
1729114749361739300,39.6177392578125,-0.17473411560058594,0.6493332386016846,-0.38386791944503784
1729114749399673600,39.655673583984374,0.03522777557373047,0.6073955297470093,-0.25808006525039673
1729114749437608000,39.69360791015625,-0.05824565887451172,0.5771423578262329,-0.015348566696047783
1729114749475542500,39.73154248046875,0.06300640106201172,0.37827369570732117,-0.22929856181144714
1729114749513476900,39.769476806640625,-0.028082847595214844,0.2897849678993225,-0.08002756536006927
1729114749551411500,39.80741137695313,0.011902809143066406,0.20575764775276184,-0.11183586716651917
1729114749589345800,39.845345703125,-0.0224151611328125,0.16230443120002747,-0.09328902512788773
1729114749627280400,39.8832802734375,0.007525444030761719,0.11900986731052399,-0.05833788216114044
1729114749665214700,39.92121459960938,-0.004084587097167969,0.09697742760181427,-0.08238986134529114
1729114749703149300,39.9591494140625,0.01004791259765625,0.10033489763736725,-0.05289731174707413
1729114749741083600,39.99708374023437,-0.004726409912109375,0.10054045915603638,-0.03819070756435394
1729114749779018000,40.03501806640625,-0.005848884582519531,0.09423595666885376,-0.04804827272891998
1729114749816952600,40.07295263671875,0.0005598068237304688,0.07682517915964127,-0.037636056542396545
1729114749854887000,40.110886962890625,-0.00565338134765625,0.08347414433956146,-0.0381089448928833
1729114749892821500,40.148821533203126,-0.0030317306518554688,0.0654204785823822,-0.047219112515449524
1729114749930755800,40.186755859375,0.00006198883056640625,0.0723138079047203,-0.025091320276260376
1729114749968690400,40.2246904296875,0.00005626678466796875,0.06705160439014435,-0.019152313470840454
1729114750006624800,40.26262475585938,0.0048274993896484375,0.06384502351284027,-0.024049103260040283
1729114750044559400,40.30055932617187,0.0022954940795898438,0.05219006538391113,-0.026491165161132812
1729114750082493700,40.33849365234375,-0.006114959716796875,0.044163577258586884,-0.007583260536193848
1729114750120428000,40.37642797851562,0.004848480224609375,0.043804630637168884,-0.027027025818824768
1729114750158362600,40.41436254882812,-0.013761520385742188,0.034942615777254105,-0.0064515769481658936
1729114750196297000,40.452296875,0.007822036743164062,0.02703779935836792,-0.02974550426006317
1729114750234231600,40.4902314453125,0.0006961822509765625,0.0326724499464035,-0.004438683390617371
1729114750272166000,40.528165771484375,0.004029273986816406,0.06834442913532257,0.13074105978012085
1729114750310100200,40.566100341796876,0.015567779541015625,0.05619458854198456,-0.058002352714538574
1729114750348034800,40.60403491210938,-0.020233154296875,0.0031159445643424988,0.05674615502357483
1729114750385969200,40.64196923828125,-0.7315073013305664,0.28602325916290283,0.4799363613128662
1729114750423903700,40.67990380859375,0.347015380859375,-0.10020750761032104,0.4875790476799011
1729114750461838000,40.71783813476563,-0.1453409194946289,0.3550984263420105,0.8450964689254761
1729114750499772700,40.75577270507812,-0.09328842163085938,0.3374430239200592,0.7612237930297852
1729114750537707000,40.79370703125,0.08467674255371094,-0.007774748373776674,0.7101469039916992
1729114750575641600,40.8316416015625,-0.09700679779052734,-0.10242023319005966,0.9565372467041016
1729114750613576000,40.869575927734374,-0.2382984161376953,0.030293582007288933,0.8081632256507874
1729114750651510300,40.90751025390625,-0.11835765838623047,-0.12928548455238342,0.27086108922958374
1729114750689444900,40.94544482421875,0.02152252197265625,-0.2710665166378021,0.3123698830604553
1729114750727379200,40.983379150390626,-0.01564311981201172,-0.2801540791988373,-0.1282067745923996
1729114750765313800,41.02131372070313,-0.0470428466796875,-0.1285703033208847,0.19238054752349854
1729114750803248000,41.059248046875,-0.22884082794189453,-0.3083360493183136,-0.05870293825864792
1729114750841182700,41.0971826171875,0.045273780822753906,-0.5948274731636047,-0.2520253658294678
1729114750879117000,41.13511694335938,-0.048999786376953125,-0.3715941309928894,0.08705219626426697
1729114750917051600,41.1730517578125,0.08266830444335938,-0.34138160943984985,0.01635957509279251
1729114750954986000,41.21098608398437,-0.06696510314941406,-0.39220303297042847,-0.11798716336488724
1729114750992920300,41.24892041015625,-0.046103477478027344,-0.23510286211967468,-0.1787119060754776
1729114751030855000,41.28685498046875,0.07072830200195312,-0.19990327954292297,0.18606865406036377
1729114751068789200,41.324789306640625,-0.1172647476196289,-0.1422438770532608,0.17331477999687195
1729114751106723800,41.362723876953126,-0.06867504119873047,-0.21129551529884338,-0.2606237530708313
1729114751144658200,41.400658203125,0.2240009307861328,-0.35796916484832764,0.15705496072769165
1729114751182592800,41.4385927734375,0.1672534942626953,-0.354878306388855,0.05309518426656723
1729114751220527000,41.47652709960938,0.09729957580566406,-0.2470538318157196,-0.461262583732605
1729114751258461700,41.51446166992187,-0.11464118957519531,-0.25689932703971863,-0.3709852695465088
1729114751296396000,41.55239599609375,-0.05469799041748047,-0.08288940787315369,0.3055873215198517
1729114751334330400,41.59033032226562,-0.03379344940185547,-0.2045278251171112,0.11737662553787231
1729114751372265000,41.62826489257812,-0.18204975128173828,-0.21174603700637817,-0.23191732168197632
1729114751410199300,41.66619921875,0.4334421157836914,-0.455565869808197,0.02922375500202179
1729114751448134000,41.7041337890625,-0.1448688507080078,-0.14919793605804443,-0.10524141788482666
1729114751486068200,41.742068115234375,0.23274707794189453,-0.49403655529022217,-0.47623515129089355
1729114751524002800,41.7800029296875,0.11511039733886719,-0.46589499711990356,-0.39128100872039795
1729114751561937200,41.81793725585938,-0.19634532928466797,-0.20094037055969238,-0.03565707802772522
1729114751599871700,41.85587182617188,0.06488704681396484,-0.3532031178474426,-0.4009339213371277
1729114751637806000,41.89380615234375,0.0009632110595703125,-0.40861374139785767,-0.3295876383781433
1729114751675740700,41.93174072265625,-0.14233779907226562,-0.21839681267738342,-0.022766128182411194
1729114751713675000,41.96967504882812,-0.1947307586669922,-0.24055859446525574,-0.15079841017723083
1729114751751609600,42.007609619140624,0.14876937866210938,-0.3870169520378113,-0.4890192151069641
1729114751789544000,42.0455439453125,-0.023446083068847656,-0.5120617747306824,-0.9600071907043457
1729114751827478500,42.083478515625,0.26282405853271484,-0.8194476366043091,-2.521101474761963
1729114751865412900,42.121412841796875,-0.25289249420166016,-1.1045840978622437,-2.3338513374328613
1729114751903347200,42.15934716796875,0.0835723876953125,-0.6374709606170654,-0.8279156684875488
1729114751941281800,42.19728173828125,-0.14983272552490234,-0.5525933504104614,-0.34109726548194885
1729114751979216100,42.23521606445313,0.29021358489990234,-0.19764098525047302,-0.15155929327011108
1729114752017150700,42.27315063476563,0.007079124450683594,0.14076948165893555,-0.4473384618759155
1729114752055085000,42.3110849609375,0.23042869567871094,0.4149649739265442,-0.0842866376042366
1729114752093019600,42.34901953125,-0.09735870361328125,0.58766108751297,-0.26876193284988403
1729114752130954000,42.3869541015625,0.0703287124633789,0.6487934589385986,-0.3236648142337799
1729114752168888600,42.424888671875,-0.04237651824951172,0.5865007638931274,-0.1785966455936432
1729114752206823000,42.462822998046875,-0.0009660720825195312,0.45086050033569336,-0.24558503925800323
1729114752244757200,42.50075732421875,-0.05462074279785156,0.3586714565753937,-0.17434407770633698
1729114752282691800,42.53869189453125,0.006184577941894531,0.22977308928966522,-0.17554467916488647
1729114752320626200,42.576626220703126,-0.004153251647949219,0.14464950561523438,-0.14426520466804504
1729114752358560800,42.61456079101563,0.013760566711425781,0.10098721086978912,-0.14761903882026672
1729114752396495000,42.6524951171875,0.004235267639160156,0.08380687981843948,-0.11748851835727692
1729114752434429700,42.6904296875,-0.0023784637451171875,0.09463509172201157,-0.11109428107738495
1729114752472364000,42.72836401367187,-0.0026273727416992188,0.13232725858688354,-0.09382865577936172
1729114752510298600,42.76629858398437,0.0001659393310546875,0.14884355664253235,-0.09499912708997726
1729114752548233000,42.80423291015625,-0.01869487762451172,0.13517339527606964,-0.07141324132680893
1729114752586167300,42.84216723632812,-0.015669822692871094,0.10953397303819656,-0.07491834461688995
1729114752624102000,42.880101806640624,-0.0032968521118164062,0.0847625732421875,-0.060075610876083374
1729114752662036200,42.9180361328125,-0.005324363708496094,0.05824500322341919,-0.07208306342363358
1729114752699970800,42.955970703125,0.0016574859619140625,0.03990830481052399,-0.05377618223428726
1729114752737905200,42.9939052734375,-0.0069370269775390625,0.04000803828239441,-0.050140246748924255
1729114752775839700,43.03183984375,0.000091552734375,0.052911169826984406,-0.040821805596351624
1729114752813774000,43.06977416992188,-0.0021791458129882812,0.03854479640722275,-0.04069916903972626
1729114752851708700,43.10770874023437,-0.0068416595458984375,0.04352867603302002,-0.034955039620399475
1729114752889643000,43.14564306640625,-0.024211883544921875,0.14069364964962006,-0.04547335207462311
1729114752927577600,43.18357763671875,-0.011715888977050781,0.4474029242992401,-0.03676342964172363
1729114752965512000,43.221511962890624,-0.13946819305419922,0.6734509468078613,0.05440092831850052
1729114753003446500,43.259446533203125,0.152008056640625,0.3973008096218109,0.16684365272521973
1729114753041380900,43.297380859375,-0.003265380859375,0.6324379444122314,-0.1956978440284729
1729114753079315500,43.3353154296875,-0.27741527557373047,1.1093783378601074,0.02038903534412384
1729114753117249800,43.373249755859376,-0.22943496704101562,1.362161636352539,0.2042897492647171
1729114753155184000,43.41118408203125,-0.019182205200195312,1.4038891792297363,0.19664204120635986
1729114753193118700,43.44911865234375,-0.26297950744628906,1.3645474910736084,-0.06261888146400452
1729114753231053000,43.48705297851563,-0.36808013916015625,1.2990331649780273,0.2665722370147705
1729114753268987600,43.52498754882812,-0.16403865814208984,1.3290268182754517,0.14582809805870056
1729114753306922000,43.562921875,0.37697315216064453,1.3176788091659546,0.33340972661972046
1729114753344856600,43.600856689453124,-0.18402099609375,1.3912948369979858,0.25500011444091797
1729114753382791000,43.638791015625,0.36593055725097656,1.0459294319152832,-0.07690350711345673
1729114753420725500,43.6767255859375,-1.863530158996582,1.0968546867370605,-0.44981473684310913
1729114753458659800,43.714659912109376,1.9407272338867188,0.4687235355377197,-0.5693916082382202
1729114753496594400,43.75259448242188,0.864079475402832,0.825844407081604,0.49208903312683105
1729114753534528800,43.79052880859375,0.5907621383666992,0.7056518793106079,-0.2596820592880249
1729114753572463400,43.82846337890625,0.061326026916503906,2.2303123474121094,1.1128058433532715
1729114753610397700,43.86639770507813,-1.5631942749023438,0.2266274094581604,-0.13574405014514923
1729114753648332000,43.90433203125,3.1592092514038086,-0.08948826789855957,0.8810647130012512
1729114753686266600,43.9422666015625,-4.7854695320129395,1.1848714351654053,0.3833806812763214
1729114753724201000,43.98020092773437,1.9574403762817383,-0.06887447834014893,0.4805133640766144
1729114753762135600,44.018135498046874,0.47263145446777344,-0.08645838499069214,0.41673821210861206
1729114753800070000,44.05606982421875,-1.758920669555664,0.3328624963760376,0.6793019771575928
1729114753838004500,44.09400439453125,1.7889404296875,-0.8406734466552734,0.925873875617981
1729114753875938800,44.131938720703126,1.2308101654052734,-0.8629180192947388,0.6399171948432922
1729114753913873400,44.16987329101563,-1.1478910446166992,-0.7667665481567383,0.22086067497730255
1729114753951807700,44.20780786132813,-1.2697381973266602,0.020336806774139404,0.4871351420879364
1729114753989742300,44.24574243164062,0.11420440673828125,-0.6607401967048645,0.7959844470024109
1729114754027676700,44.2836767578125,-1.185293197631836,-0.6530065536499023,0.4186171591281891
1729114754065611000,44.32161108398437,-1.1538257598876953,-0.454681396484375,0.3001648485660553
1729114754103545600,44.35954565429687,1.0602798461914062,-0.6046600341796875,1.0693888664245605
1729114754141480000,44.39747998046875,-3.263676166534424,0.15132379531860352,1.6275516748428345
1729114754179414500,44.43541455078125,0.30987071990966797,-1.0918629169464111,0.4283047914505005
1729114754217348900,44.473348876953125,0.05104255676269531,-0.8642747402191162,0.809019148349762
1729114754255283500,44.511283447265626,2.830015182495117,-0.8822792172431946,0.2574690580368042
1729114754293217800,44.5492177734375,-0.5441865921020508,-0.2622220814228058,1.6681010723114014
1729114754331152400,44.58715234375,-1.8164281845092773,-0.2744700014591217,0.44354909658432007
1729114754369086700,44.62508666992188,-2.086392402648926,-1.26711106300354,0.5057754516601562
1729114754407021300,44.66302124023437,5.046628952026367,-0.8407653570175171,0.43184396624565125
1729114754444955600,44.70095556640625,-0.7392597198486328,-0.4978824257850647,0.7489761114120483
1729114754482890200,44.73889013671875,-2.4607677459716797,-0.4463757276535034,0.36881697177886963
1729114754520824600,44.77682446289062,0.6684551239013672,-0.5428059101104736,0.8873944878578186
1729114754558759000,44.814759033203124,-1.6133489608764648,-0.6213828921318054,0.6884769201278687
1729114754596693500,44.852693603515625,3.797307014465332,-1.2961821556091309,1.1025606393814087
1729114754634627800,44.8906279296875,-3.098607063293457,-1.3942018747329712,-0.44518694281578064
1729114754672562400,44.9285625,2.3470420837402344,-0.4688180088996887,0.28877508640289307
1729114754710496800,44.96649682617188,0.5094223022460938,-0.6549254655838013,-0.21490681171417236
1729114754748431400,45.00443139648438,-1.3865385055541992,-0.17375001311302185,-0.3068254888057709
1729114754786365700,45.04236572265625,-0.8794288635253906,-0.5620264410972595,-1.0726789236068726
1729114754824300300,45.08030029296875,1.201176643371582,-1.665677547454834,-0.8265761137008667
1729114754862234600,45.11823461914062,-0.9938106536865234,-0.4408039152622223,-0.4823361933231354
1729114754900169200,45.156169189453124,-3.8058114051818848,0.10767680406570435,-0.992686927318573
1729114754938103600,45.194103515625,0.8385143280029297,-2.5805716514587402,-1.4978080987930298
1729114754976038100,45.2320380859375,0.6566410064697266,-1.0545278787612915,-1.6543772220611572
1729114755013972500,45.269972412109375,0.38279056549072266,-0.5070430040359497,-1.2543410062789917
1729114755051907000,45.307906982421876,-1.1267871856689453,-0.5562970638275146,-2.497966766357422
1729114755089841400,45.34584130859375,-0.6163463592529297,-1.204850435256958,-2.110616683959961
1729114755127775700,45.38377563476563,0.5952215194702148,-1.3011023998260498,-1.6858848333358765
1729114755165710300,45.42171044921875,0.24079322814941406,-0.9156984090805054,-2.1467995643615723
1729114755203644700,45.45964477539062,-0.3625831604003906,-1.20289146900177,-2.341048240661621
1729114755241579300,45.49757934570312,2.84298038482666,-0.8725565075874329,-0.8931426405906677
1729114755279513600,45.535513671875,-3.398827075958252,-0.34816330671310425,-1.9701323509216309
1729114755317448200,45.5734482421875,1.9750328063964844,-0.8359487056732178,-1.443406105041504
1729114755355382500,45.611382568359375,-1.4345359802246094,-0.4379231929779053,-2.342560052871704
1729114755393317000,45.649317138671876,0.2024068832397461,-1.1990876197814941,-1.4331517219543457
1729114755431251500,45.68725146484375,-0.5114278793334961,0.6606916189193726,-1.2282167673110962
1729114755469186000,45.72518603515625,2.1513118743896484,-0.6619528532028198,-1.5488641262054443
1729114755507120400,45.76312036132813,-5.844367980957031,1.1642072200775146,-1.567507266998291
1729114755545055000,45.80105493164063,1.9867992401123047,-0.8916856050491333,-1.2690010070800781
1729114755582989300,45.8389892578125,1.4519414901733398,-1.0990945100784302,-0.754189133644104
1729114755620923600,45.87692358398437,-0.6829233169555664,-0.3270622491836548,-0.8415593504905701
1729114755658858200,45.91485815429687,-2.1762051582336426,1.4563430547714233,-0.36684226989746094
1729114755696792600,45.95279248046875,1.6910343170166016,-0.5083016753196716,-1.0315958261489868
