time,seconds_elapsed,z,y,x
1729114709823789000,0.0797890625,0.00015271181473508477,0.0005344913806766272,0.0005344913806766272
1729114709857122000,0.1131220703125,0.00038177953683771193,-0.0009162708884105086,-0.0016034740256145597
1729114709890455000,0.146455078125,0.0005344913806766272,0.00038177953683771193,0.0017561858985573053
1729114709923788000,0.1797880859375,0.00038177953683771193,-0.00129805039614439,-0.00129805039614439
1729114709957121000,0.21312109375,-0.00007635590736754239,0.00038177953683771193,0.0008399150101467967
1729114709990454300,0.246454345703125,0.0005344913806766272,-0.00038177953683771193,-0.0005344913806766272
1729114710023787300,0.279787353515625,0.0005344913806766272,-0.00022906772210262716,0.0005344913806766272
1729114710057120300,0.313120361328125,-0.00022906772210262716,-0.00007635590736754239,-0.00022906772210262716
1729114710090453200,0.346453369140625,0.00022906772210262716,-0.0005344913806766272,-0.00038177953683771193
1729114710123786200,0.3797861328125,0.00007635590736754239,0.00038177953683771193,0.00038177953683771193
1729114710157119200,0.413119140625,-0.00007635590736754239,-0.0008399150101467967,-0.00007635590736754239
1729114710190452200,0.4464521484375,-0.00007635590736754239,-0.00022906772210262716,0.0004581354442052543
1729114710223785200,0.47978515625,0.00015271181473508477,-0.0005344913806766272,0.00022906772210262716
1729114710257118200,0.5131181640625,0.00007635590736754239,-0.00022906772210262716,0.00015271181473508477
1729114710290451500,0.546451416015625,0.0010689827613532543,-0.00022906772210262716,-0.00007635590736754239
1729114710323784400,0.579784423828125,0,-0.00022906772210262716,-0.00015271181473508477
1729114710357117400,0.613117431640625,-0.00007635590736754239,-0.0006108472589403391,0.00022906772210262716
1729114710390450400,0.646450439453125,-0.00007635590736754239,-0.0004581354442052543,0.0005344913806766272
1729114710423783400,0.679783447265625,0.0005344913806766272,0.00030542362947016954,0
1729114710457116400,0.713116455078125,0,-0.00022906772210262716,0.00007635590736754239
1729114710490449400,0.746449462890625,0.0006108472589403391,0,0.00030542362947016954
1729114710523782400,0.779782470703125,0.00030542362947016954,-0.00022906772210262716,-0.00007635590736754239
1729114710557115400,0.813115478515625,0.0005344913806766272,-0.00022906772210262716,-0.00007635590736754239
1729114710590448600,0.84644873046875,0,-0.00022906772210262716,-0.00007635590736754239
1729114710623781600,0.87978173828125,-0.00007635590736754239,0.00038177953683771193,-0.00007635590736754239
1729114710657114600,0.913114501953125,0.00030542362947016954,0.00015271181473508477,-0.0004581354442052543
1729114710690447600,0.946447509765625,-0.0005344913806766272,0.00030542362947016954,0.0004581354442052543
1729114710723780600,0.979780517578125,0.0005344913806766272,-0.00022906772210262716,-0.00007635590736754239
1729114710757113600,1.013113525390625,0.0005344913806766272,-0.00022906772210262716,0.00015271181473508477
1729114710790446600,1.046446533203125,0.00015271181473508477,-0.0004581354442052543,0.00030542362947016954
1729114710823779600,1.079779541015625,0.00038177953683771193,0.00038177953683771193,0.0005344913806766272
1729114710857112600,1.113112548828125,0.0004581354442052543,-0.00015271181473508477,0
1729114710890445800,1.14644580078125,-0.00007635590736754239,-0.00022906772210262716,-0.00007635590736754239
1729114710923778800,1.17977880859375,-0.00007635590736754239,-0.00022906772210262716,0.00022906772210262716
1729114710957111800,1.21311181640625,-0.00007635590736754239,-0.00022906772210262716,-0.00015271181473508477
1729114710990444800,1.24644482421875,0.0005344913806766272,-0.00022906772210262716,-0.00007635590736754239
1729114711023777800,1.27977783203125,-0.00007635590736754239,-0.00022906772210262716,-0.00007635590736754239
1729114711057110800,1.31311083984375,0.00022906772210262716,-0.00022906772210262716,0.00022906772210262716
1729114711090443800,1.34644384765625,-0.00007635590736754239,0.00022906772210262716,-0.00007635590736754239
1729114711123776800,1.37977685546875,-0.00007635590736754239,-0.00022906772210262716,-0.00007635590736754239
1729114711157109800,1.41310986328125,0.0005344913806766272,-0.00022906772210262716,0.00007635590736754239
1729114711190443000,1.446443115234375,0.00030542362947016954,-0.00015271181473508477,0.00015271181473508477
1729114711223776000,1.47977587890625,0.00015271181473508477,-0.00030542362947016954,0
1729114711257109000,1.51310888671875,-0.00022906772210262716,-0.00015271181473508477,0.0004581354442052543
1729114711290442000,1.54644189453125,0.00038177953683771193,-0.00007635590736754239,-0.00015271181473508477
1729114711323775000,1.57977490234375,-0.00022906772210262716,-0.00038177953683771193,-0.00015271181473508477
1729114711357108000,1.61310791015625,0.00038177953683771193,0.00015271181473508477,-0.00015271181473508477
1729114711390441000,1.64644091796875,-0.00022906772210262716,-0.00007635590736754239,-0.00007635590736754239
1729114711423774000,1.67977392578125,0.00038177953683771193,-0.00007635590736754239,0
1729114711457107200,1.713107177734375,-0.00022906772210262716,0.0005344913806766272,-0.00015271181473508477
1729114711490440200,1.746440185546875,0.00015271181473508477,0.00015271181473508477,0.00007635590736754239
1729114711523773200,1.779773193359375,0.00038177953683771193,0.0005344913806766272,-0.00007635590736754239
1729114711557106200,1.813106201171875,0.00038177953683771193,0,0.0004581354442052543
1729114711590439200,1.846439208984375,0,0,-0.0005344913806766272
1729114711623772200,1.879772216796875,0.00030542362947016954,-0.0006108472589403391,-0.00015271181473508477
1729114711657105200,1.913105224609375,0.00022906772210262716,-0.0006108472589403391,-0.00007635590736754239
1729114711690438100,1.946438232421875,-0.00030542362947016954,-0.00007635590736754239,-0.00007635590736754239
1729114711723771100,1.979771240234375,0.00007635590736754239,0,-0.00015271181473508477
1729114711757104400,2.0131044921875,-0.00030542362947016954,0.00022906772210262716,-0.00015271181473508477
1729114711790437400,2.046437255859375,-0.00030542362947016954,0.00007635590736754239,-0.00015271181473508477
1729114711823770400,2.079770263671875,-0.00030542362947016954,0.00007635590736754239,-0.00015271181473508477
1729114711857103400,2.113103271484375,0.00007635590736754239,0,0.00007635590736754239
1729114711890436400,2.146436279296875,0.00030542362947016954,0,0.00015271181473508477
1729114711923769300,2.179769287109375,0.00038177953683771193,-0.0005344913806766272,-0.00015271181473508477
1729114711957102300,2.213102294921875,0.00030542362947016954,0,-0.00015271181473508477
1729114711990435300,2.246435302734375,0.00007635590736754239,-0.0004581354442052543,-0.00015271181473508477
1729114712023768300,2.279768310546875,-0.00030542362947016954,0,-0.00015271181473508477
1729114712057101600,2.3131015625,-0.00022906772210262716,-0.00015271181473508477,0
1729114712090434600,2.3464345703125,0.00030542362947016954,0,-0.00007635590736754239
1729114712123767600,2.379767578125,-0.00030542362947016954,0.00015271181473508477,0.0005344913806766272
1729114712157100500,2.4131005859375,0,0.00030542362947016954,-0.00007635590736754239
1729114712190433500,2.44643359375,-0.0007635590736754239,0,0
1729114712223766500,2.4797666015625,-0.00030542362947016954,0,-0.00007635590736754239
1729114712257099500,2.513099609375,0.00030542362947016954,0,-0.00007635590736754239
1729114712290432500,2.5464326171875,-0.00030542362947016954,0,0.00022906772210262716
1729114712323765500,2.579765625,0.00030542362947016954,0.0004581354442052543,-0.00030542362947016954
1729114712357098800,2.6130986328125,-0.00030542362947016954,0.00007635590736754239,-0.000687203137204051
1729114712390431700,2.646431640625,-0.00015271181473508477,0.00015271181473508477,0.0004581354442052543
1729114712423764700,2.6797646484375,-0.0006108472589403391,0.00030542362947016954,-0.00015271181473508477
1729114712457097700,2.71309765625,0.00030542362947016954,0.00022906772210262716,0.00007635590736754239
1729114712490430700,2.7464306640625,0.00030542362947016954,0,0.0004581354442052543
1729114712523763700,2.779763671875,0.00022906772210262716,0,-0.00015271181473508477
1729114712557096700,2.8130966796875,0.00022906772210262716,0,-0.00015271181473508477
1729114712590429700,2.8464296875,-0.00022906772210262716,0,-0.00015271181473508477
1729114712623762700,2.8797626953125,0.00038177953683771193,-0.00007635590736754239,-0.00015271181473508477
1729114712657094100,2.91309423828125,-0.00007635590736754239,-0.00015271181473508477,-0.00022906772210262716
1729114712690427100,2.94642724609375,-0.00022906772210262716,0.00030542362947016954,-0.00038177953683771193
1729114712723760000,2.979760009765625,0.00015271181473508477,0.00015271181473508477,-0.00015271181473508477
1729114712757093000,3.013093017578125,-0.00015271181473508477,0.0004581354442052543,-0.00015271181473508477
1729114712790426000,3.046426025390625,-0.00015271181473508477,-0.00007635590736754239,-0.0006108472589403391
1729114712823759000,3.079759033203125,-0.00022906772210262716,0.0005344913806766272,-0.00030542362947016954
1729114712857092000,3.113092041015625,0,-0.00007635590736754239,-0.00007635590736754239
1729114712890425300,3.14642529296875,-0.00030542362947016954,-0.00007635590736754239,-0.00007635590736754239
1729114712923758300,3.17975830078125,0.00030542362947016954,0.0004581354442052543,0.0004581354442052543
1729114712957091300,3.21309130859375,-0.00007635590736754239,-0.00015271181473508477,0.00038177953683771193
1729114712990424300,3.24642431640625,-0.00030542362947016954,-0.00015271181473508477,0.0006108472589403391
1729114713023757300,3.27975732421875,-0.00038177953683771193,-0.00015271181473508477,0.0006108472589403391
1729114713057090300,3.31309033203125,-0.00030542362947016954,-0.00015271181473508477,0
1729114713090423300,3.34642333984375,0.00015271181473508477,-0.00015271181473508477,-0.00038177953683771193
1729114713123756300,3.37975634765625,-0.00030542362947016954,0.00022906772210262716,0.00030542362947016954
1729114713157089300,3.41308935546875,0.00022906772210262716,-0.00022906772210262716,0.0004581354442052543
1729114713190422500,3.446422607421875,-0.00022906772210262716,-0.00015271181473508477,0
1729114713223755500,3.479755615234375,-0.00007635590736754239,-0.00015271181473508477,0
1729114713257088500,3.513088623046875,0.00038177953683771193,-0.0004581354442052543,-0.00030542362947016954
1729114713290421500,3.54642138671875,-0.00007635590736754239,-0.00015271181473508477,0.0006108472589403391
1729114713323754500,3.57975439453125,-0.00015271181473508477,-0.00015271181473508477,0
1729114713357087500,3.61308740234375,-0.00015271181473508477,-0.00015271181473508477,-0.00007635590736754239
1729114713390420500,3.64642041015625,-0.0004581354442052543,-0.00007635590736754239,-0.00007635590736754239
1729114713423753500,3.67975341796875,0,-0.00007635590736754239,-0.00007635590736754239
1729114713457086500,3.71308642578125,-0.00015271181473508477,-0.000687203137204051,0.0005344913806766272
1729114713490419700,3.746419677734375,-0.00015271181473508477,-0.0005344913806766272,0.00038177953683771193
1729114713523752700,3.779752685546875,0.00015271181473508477,-0.00007635590736754239,0.00022906772210262716
1729114713557085700,3.813085693359375,-0.00015271181473508477,0,0.00030542362947016954
1729114713590418700,3.846418701171875,-0.00015271181473508477,0,-0.00007635590736754239
1729114713623751700,3.879751708984375,0.00030542362947016954,0.0004581354442052543,0
1729114713657084700,3.913084716796875,-0.0004581354442052543,0,0.00022906772210262716
1729114713690417700,3.946417724609375,0.00007635590736754239,0,-0.00015271181473508477
1729114713723750700,3.979750732421875,-0.00015271181473508477,0.00007635590736754239,-0.00015271181473508477
1729114713757083600,4.013083740234375,-0.00015271181473508477,0.00015271181473508477,0.00038177953683771193
1729114713790417000,4.0464169921875,-0.00022906772210262716,0.00007635590736754239,-0.00015271181473508477
1729114713823750000,4.07975,0.00007635590736754239,-0.00038177953683771193,0.00022906772210262716
1729114713857083000,4.113082763671875,0.0009926267666742206,0.00007635590736754239,-0.00015271181473508477
1729114713890415900,4.146415771484375,-0.0006108472589403391,0.00007635590736754239,0.00038177953683771193
1729114713923748900,4.179748779296875,-0.00007635590736754239,0.00007635590736754239,0.00007635590736754239
1729114713957081900,4.213081787109375,-0.00007635590736754239,0.00030542362947016954,-0.00015271181473508477
1729114713990414800,4.246414794921875,-0.00007635590736754239,0.00007635590736754239,-0.00015271181473508477
1729114714023747800,4.279747802734375,-0.00007635590736754239,-0.0005344913806766272,-0.00015271181473508477
1729114714057080800,4.313080810546875,0.00030542362947016954,0.0004581354442052543,0
1729114714090414000,4.3464140625,0.00015271181473508477,0,-0.0005344913806766272
1729114714123747000,4.3797470703125,-0.00007635590736754239,0,-0.00007635590736754239
1729114714157080000,4.413080078125,-0.00007635590736754239,0.0005344913806766272,-0.00015271181473508477
1729114714190413000,4.4464130859375,0.00007635590736754239,0,-0.00038177953683771193
1729114714223746000,4.47974609375,-0.00007635590736754239,0,0.00015271181473508477
1729114714257079000,4.5130791015625,0,0,-0.00015271181473508477
1729114714290412000,4.546412109375,0.0005344913806766272,0,-0.00015271181473508477
1729114714323745000,4.5797451171875,-0.00015271181473508477,0.00038177953683771193,-0.00015271181473508477
1729114714357078300,4.613078369140625,-0.00015271181473508477,0.00022906772210262716,-0.00015271181473508477
1729114714390411300,4.646411376953125,-0.00015271181473508477,0,-0.00015271181473508477
1729114714423744300,4.679744140625,-0.0007635590736754239,0.0005344913806766272,-0.00015271181473508477
1729114714457077200,4.7130771484375,-0.00015271181473508477,-0.00007635590736754239,-0.0005344913806766272
1729114714490410200,4.74641015625,0.0004581354442052543,0.00022906772210262716,-0.00007635590736754239
1729114714523743200,4.7797431640625,0,0.00038177953683771193,-0.00007635590736754239
1729114714557076200,4.813076171875,-0.00015271181473508477,-0.00007635590736754239,-0.00007635590736754239
1729114714590409200,4.8464091796875,0.00030542362947016954,-0.00007635590736754239,-0.00022906772210262716
1729114714623742200,4.8797421875,0.0007635590736754239,-0.00038177953683771193,-0.00007635590736754239
1729114714657075500,4.913075439453125,0.00030542362947016954,-0.00007635590736754239,-0.0004581354442052543
1729114714690408400,4.946408447265625,-0.0007635590736754239,-0.00007635590736754239,0
1729114714723741400,4.979741455078125,0.0008399150101467967,-0.0006108472589403391,-0.0005344913806766272
1729114714757074400,5.013074462890625,0.0004581354442052543,0.0005344913806766272,0.00030542362947016954
1729114714790407400,5.046407470703125,0,-0.00015271181473508477,0
1729114714823740400,5.079740478515625,0.0004581354442052543,-0.00015271181473508477,0
1729114714857073400,5.113073486328125,-0.00007635590736754239,-0.00015271181473508477,0
1729114714890406400,5.146406494140625,0.00007635590736754239,-0.00015271181473508477,0.000687203137204051
1729114714923739400,5.179739501953125,0.0006108472589403391,0.00030542362947016954,0.0004581354442052543
1729114714957072600,5.21307275390625,0.00038177953683771193,-0.00007635590736754239,0.00007635590736754239
1729114714990405600,5.246405517578125,-0.00015271181473508477,0.00038177953683771193,-0.0004581354442052543
1729114715023738600,5.279738525390625,0.00007635590736754239,-0.00007635590736754239,0.00007635590736754239
1729114715057071600,5.313071533203125,-0.00007635590736754239,-0.0004581354442052543,0.00007635590736754239
1729114715090404600,5.346404541015625,0.00030542362947016954,-0.00007635590736754239,0.0006108472589403391
1729114715123737600,5.379737548828125,-0.00022906772210262716,-0.00007635590736754239,-0.0005344913806766272
1729114715157070600,5.413070556640625,0.012980503961443901,-0.0032069480512291193,0.0022143214009702206
1729114715190403600,5.446403564453125,0.0653606578707695,-0.0038177953101694584,0.00259610079228878
1729114715223736600,5.479736572265625,0.008246437646448612,0.010613471269607544,-0.005268557462841272
1729114715257069800,5.51306982421875,-0.05276193097233772,0.002672456670552492,-0.0028251686599105597
1729114715290402800,5.54640283203125,0.007024743594229221,-0.004504998680204153,-0.00129805039614439
1729114715323735800,5.57973583984375,0.02420482225716114,0.0031305921729654074,0.0009162708884105086
1729114715357068800,5.61306884765625,-0.00916270911693573,0.0007635590736754239,0.00022906772210262716
1729114715390401800,5.64640185546875,-0.0028251686599105597,-0.0050394898280501366,-0.0004581354442052543
1729114715423734800,5.67973486328125,0.005803049076348543,0.004734066314995289,0.00022906772210262716
1729114715457067800,5.71306787109375,-0.0015271181473508477,-0.0017561858985573053,0
1729114715490400800,5.74640087890625,-0.00038177953683771193,0,0.00015271181473508477
1729114715523733800,5.779733642578125,0.002061609411612153,0.0012216945178806782,-0.0005344913806766272
1729114715557067000,5.81306689453125,-0.0014507622690871358,-0.0009926267666742206,0
1729114715590400000,5.84639990234375,0.00022906772210262716,0.0008399150101467967,0
1729114715623733000,5.87973291015625,-0.00007635590736754239,-0.0009926267666742206,0
1729114715657066000,5.91306591796875,0.00022906772210262716,0.0011453386396169662,0
1729114715690399000,5.94639892578125,0.00022906772210262716,-0.00038177953683771193,0.00015271181473508477
1729114715723732000,5.97973193359375,0.0005344913806766272,0.00022906772210262716,0.00030542362947016954
1729114715757065000,6.01306494140625,0.00022906772210262716,-0.00022906772210262716,0.0004581354442052543
1729114715790398000,6.04639794921875,0.00022906772210262716,-0.00007635590736754239,0
1729114715823731000,6.07973095703125,0.0008399150101467967,0.00007635590736754239,-0.00030542362947016954
1729114715857064200,6.113064208984375,-0.00038177953683771193,-0.00007635590736754239,0.00007635590736754239
1729114715890397200,6.146397216796875,0.00022906772210262716,0.00038177953683771193,0
1729114715923730200,6.179730224609375,0.00022906772210262716,0.0005344913806766272,0.0006108472589403391
1729114715957063200,6.213063232421875,-0.00030542362947016954,-0.0005344913806766272,0.00015271181473508477
1729114715990396200,6.246396240234375,0.00022906772210262716,-0.00007635590736754239,0.00038177953683771193
1729114716023729200,6.279729248046875,0.00022906772210262716,-0.00007635590736754239,0
1729114716057062100,6.313062255859375,-0.00038177953683771193,-0.00007635590736754239,0
1729114716090395100,6.34639501953125,0.00015271181473508477,-0.00007635590736754239,0
1729114716123728100,6.37972802734375,0.00022906772210262716,-0.00007635590736754239,0
1729114716157061400,6.413061279296875,0,-0.00007635590736754239,0
1729114716190394400,6.446394287109375,0.00015271181473508477,-0.00007635590736754239,0.00007635590736754239
1729114716223727400,6.479727294921875,0.00015271181473508477,-0.00007635590736754239,0.00007635590736754239
1729114716257060400,6.513060302734375,-0.00038177953683771193,0.00015271181473508477,0
1729114716290393300,6.546393310546875,-0.00015271181473508477,-0.00007635590736754239,0.00022906772210262716
1729114716323726300,6.579726318359375,-0.00038177953683771193,-0.00007635590736754239,0
1729114716357059300,6.613059326171875,0.00015271181473508477,-0.00007635590736754239,0
1729114716390392300,6.646392333984375,0.0006108472589403391,-0.00022906772210262716,0.00022906772210262716
1729114716423725300,6.679725341796875,0.00022906772210262716,-0.00007635590736754239,-0.00030542362947016954
1729114716457058600,6.71305859375,0.00007635590736754239,0.0004581354442052543,0
1729114716490391600,6.7463916015625,0.00015271181473508477,-0.00007635590736754239,0
1729114716523724500,6.779724609375,0.00022906772210262716,0.00015271181473508477,0.0004581354442052543
1729114716557057500,6.8130576171875,-0.00007635590736754239,0.00022906772210262716,0.0006108472589403391
1729114716590390500,6.846390625,0.00007635590736754239,-0.00015271181473508477,0.0004581354442052543
1729114716623723500,6.8797236328125,0.00022906772210262716,-0.00007635590736754239,0
1729114716657056500,6.913056396484375,0.00007635590736754239,0.0005344913806766272,0
1729114716690389500,6.946389404296875,-0.00007635590736754239,-0.00007635590736754239,0
1729114716723722800,6.97972265625,0.00007635590736754239,-0.00007635590736754239,0.0004581354442052543
1729114716757055700,7.0130556640625,-0.00038177953683771193,-0.00007635590736754239,0.0006108472589403391
1729114716790388700,7.046388671875,-0.00038177953683771193,-0.0005344913806766272,0.00015271181473508477
1729114716823721700,7.0797216796875,-0.00007635590736754239,0.00022906772210262716,-0.0006108472589403391
1729114716857054700,7.1130546875,-0.00038177953683771193,0.00007635590736754239,0
1729114716890387700,7.1463876953125,-0.00038177953683771193,0.0005344913806766272,0
1729114716923720700,7.179720703125,0.00007635590736754239,0.00007635590736754239,0.00015271181473508477
1729114716957053700,7.2130537109375,-0.00038177953683771193,0.00022906772210262716,0.0006108472589403391
1729114716990386700,7.24638671875,-0.00038177953683771193,0.0005344913806766272,0
1729114717023720000,7.279719970703125,-0.0004581354442052543,-0.00007635590736754239,0
1729114717057053000,7.313052978515625,-0.0005344913806766272,-0.00007635590736754239,0
1729114717090386000,7.346385986328125,0.0005344913806766272,0.0005344913806766272,0
1729114717123719000,7.379718994140625,-0.00038177953683771193,-0.0004581354442052543,-0.00038177953683771193
1729114717157052000,7.413052001953125,-0.00038177953683771193,-0.00007635590736754239,0
1729114717190385000,7.446385009765625,0.00015271181473508477,-0.00007635590736754239,0
1729114717223718000,7.4797177734375,0,-0.00015271181473508477,-0.00015271181473508477
1729114717257051000,7.51305078125,-0.004199574701488018,0.0009162708884105086,-0.0009926267666742206
1729114717290384000,7.5463837890625,-0.008551862090826035,0.00007635590736754239,-0.00015271181473508477
1729114717323717000,7.579717041015625,0.005955760832875967,-0.0004581354442052543,0.0004581354442052543
1729114717357050000,7.613050048828125,-0.0016034740256145597,0.00030542362947016954,-0.00007635590736754239
1729114717390383000,7.646383056640625,-0.00007635590736754239,-0.0019088976550847292,-0.00007635590736754239
1729114717423716000,7.679716064453125,0.0016034740256145597,0.001374406274408102,-0.00007635590736754239
1729114717457049000,7.713049072265625,-0.0016798300202935934,-0.00129805039614439,-0.00007635590736754239
1729114717490382000,7.746382080078125,0.0009162708884105086,0.00038177953683771193,-0.00007635590736754239
1729114717523715000,7.779715087890625,0.00038177953683771193,-0.00007635590736754239,-0.00007635590736754239
1729114717557048000,7.813048095703125,-0.0004581354442052543,-0.0006108472589403391,-0.00007635590736754239
1729114717590381000,7.846381103515625,0.0011453386396169662,0.00038177953683771193,-0.00007635590736754239
1729114717623714300,7.87971435546875,-0.00007635590736754239,-0.00022906772210262716,-0.00007635590736754239
1729114717657047300,7.91304736328125,0.0008399150101467967,-0.00022906772210262716,-0.00007635590736754239
1729114717690380300,7.94638037109375,-0.00022906772210262716,-0.00022906772210262716,-0.00007635590736754239
1729114717723713300,7.97971337890625,0.0004581354442052543,-0.00022906772210262716,-0.00007635590736754239
1729114717757046300,8.01304638671875,0.00007635590736754239,-0.00022906772210262716,-0.00007635590736754239
1729114717790379300,8.046379150390624,0.0008399150101467967,0.00038177953683771193,-0.00007635590736754239
1729114717823712300,8.079712158203124,0.00038177953683771193,0.00030542362947016954,-0.00007635590736754239
1729114717857045200,8.113045166015626,0.0005344913806766272,-0.00022906772210262716,-0.00007635590736754239
1729114717890378200,8.146378173828126,0.00007635590736754239,-0.00022906772210262716,-0.00022906772210262716
1729114717923711500,8.17971142578125,0.00022906772210262716,-0.00022906772210262716,-0.00007635590736754239
1729114717957044500,8.21304443359375,0.0005344913806766272,-0.00022906772210262716,-0.00007635590736754239
1729114717990377500,8.24637744140625,-0.00007635590736754239,-0.00022906772210262716,-0.00007635590736754239
1729114718023710500,8.27971044921875,0.0005344913806766272,-0.00022906772210262716,-0.00007635590736754239
1729114718057043500,8.31304345703125,0.00022906772210262716,0.00015271181473508477,-0.00038177953683771193
1729114718090376400,8.34637646484375,0.0005344913806766272,0,-0.00007635590736754239
1729114718123709400,8.37970947265625,-0.0006108472589403391,-0.00015271181473508477,-0.00007635590736754239
1729114718157042400,8.41304248046875,0.0005344913806766272,0.00038177953683771193,0.0005344913806766272
1729114718190375400,8.44637548828125,0.0005344913806766272,-0.00022906772210262716,-0.00007635590736754239
1729114718223708700,8.479708740234376,0.0005344913806766272,-0.00022906772210262716,-0.00030542362947016954
1729114718257041700,8.513041748046875,0,0.00038177953683771193,-0.00007635590736754239
1729114718290374700,8.546374755859375,0,-0.00007635590736754239,-0.00007635590736754239
1729114718323707600,8.579707763671875,0.00030542362947016954,-0.00022906772210262716,0.00030542362947016954
1729114718357040600,8.61304052734375,-0.00007635590736754239,0,-0.00030542362947016954
1729114718390373600,8.64637353515625,-0.00015271181473508477,-0.00015271181473508477,-0.00007635590736754239
1729114718423706600,8.67970654296875,-0.00015271181473508477,-0.00007635590736754239,-0.00007635590736754239
1729114718457039600,8.71303955078125,0.0005344913806766272,-0.00022906772210262716,-0.00007635590736754239
1729114718490372600,8.74637255859375,0.0005344913806766272,-0.00022906772210262716,-0.00022906772210262716
1729114718523705900,8.779705810546876,0.00007635590736754239,-0.0008399150101467967,-0.00007635590736754239
1729114718557038800,8.813038818359376,0.0006108472589403391,-0.0008399150101467967,-0.00007635590736754239
1729114718590371800,8.846371826171875,0.0005344913806766272,-0.00022906772210262716,-0.00007635590736754239
1729114718623704800,8.879704833984375,-0.00007635590736754239,-0.00022906772210262716,-0.000687203137204051
1729114718657037800,8.913037841796875,0.0004581354442052543,0.00030542362947016954,0
1729114718690370800,8.946370849609375,0.0004581354442052543,-0.00022906772210262716,0
1729114718723703800,8.979703857421875,-0.00007635590736754239,-0.00022906772210262716,0.00015271181473508477
1729114718757036800,9.013036865234374,0.00030542362947016954,-0.00022906772210262716,-0.00007635590736754239
1729114718790369800,9.046369873046874,-0.00007635590736754239,-0.00022906772210262716,0.00038177953683771193
1729114718823703000,9.079703125,0.0005344913806766272,-0.00022906772210262716,-0.00007635590736754239
1729114718857036000,9.1130361328125,0.00015271181473508477,-0.0006108472589403391,-0.00007635590736754239
1729114718890369000,9.146369140625,0.00022906772210262716,-0.00022906772210262716,-0.00038177953683771193
1729114718923702000,9.179701904296875,0.0005344913806766272,-0.000687203137204051,-0.0005344913806766272
1729114718957035000,9.213034912109375,-0.00007635590736754239,-0.00022906772210262716,0.0005344913806766272
1729114718990368000,9.246367919921875,-0.00007635590736754239,0.00038177953683771193,0.0005344913806766272
1729114719023701000,9.279700927734375,0.0005344913806766272,-0.0005344913806766272,0.00022906772210262716
1729114719057034000,9.313033935546875,0.00030542362947016954,0.0006108472589403391,0
1729114719090367000,9.346366943359374,0.00030542362947016954,0,0
1729114719123700200,9.3797001953125,-0.00030542362947016954,0.0004581354442052543,0
1729114719157033200,9.413033203125,0.00030542362947016954,0,-0.00030542362947016954
1729114719190366200,9.4463662109375,0.00030542362947016954,0.0004581354442052543,0
1729114719223699200,9.47969921875,0.00030542362947016954,0,0
1729114719257032200,9.5130322265625,0.00022906772210262716,0,-0.00007635590736754239
1729114719290365200,9.546365234375,0.00030542362947016954,0.00030542362947016954,0.00022906772210262716
1729114719323698200,9.5796982421875,-0.00030542362947016954,0,0.00038177953683771193
1729114719357031200,9.61303125,0.00022906772210262716,0,0.0005344913806766272
1729114719390364400,9.646364501953125,-0.00030542362947016954,0,-0.00007635590736754239
1729114719423697400,9.679697509765624,-0.00030542362947016954,-0.00038177953683771193,-0.00030542362947016954
1729114719457030400,9.713030517578124,-0.00030542362947016954,-0.00007635590736754239,-0.00007635590736754239
1729114719490363400,9.74636328125,-0.00030542362947016954,-0.00007635590736754239,0.0004581354442052543
1729114719523696400,9.7796962890625,0.00015271181473508477,-0.0006108472589403391,-0.00007635590736754239
1729114719557029400,9.813029296875,0,-0.00030542362947016954,-0.00007635590736754239
1729114719590362400,9.8463623046875,0.00022906772210262716,-0.00030542362947016954,-0.00007635590736754239
1729114719623695400,9.8796953125,0.00007635590736754239,0,-0.00007635590736754239
1729114719657028400,9.9130283203125,-0.00038177953683771193,0,-0.0006108472589403391
1729114719690361600,9.946361572265625,-0.00015271181473508477,0.0005344913806766272,-0.000687203137204051
1729114719723694600,9.979694580078124,-0.00007635590736754239,-0.00007635590736754239,-0.00007635590736754239
1729114719757027600,10.013027587890624,-0.0004581354442052543,0.00007635590736754239,0
1729114719790360600,10.046360595703124,-0.00038177953683771193,0.0005344913806766272,0.0005344913806766272
1729114719823693600,10.079693603515626,-0.00030542362947016954,0,-0.00007635590736754239
1729114719857026600,10.113026611328126,-0.00038177953683771193,-0.00030542362947016954,-0.00007635590736754239
1729114719890359600,10.146359619140625,-0.00015271181473508477,0.00007635590736754239,0
1729114719923692500,10.179692626953125,-0.00022906772210262716,0.0006108472589403391,0
1729114719957025500,10.213025634765625,-0.00022906772210262716,-0.0004581354442052543,0
1729114719990358800,10.24635888671875,0.00015271181473508477,0.00030542362947016954,0.00030542362947016954
1729114720023691800,10.27969189453125,0.00038177953683771193,0,0
1729114720057024800,10.313024658203124,0.0004581354442052543,-0.0006108472589403391,-0.0006108472589403391
1729114720090357800,10.346357666015624,-0.00015271181473508477,0,-0.00015271181473508477
1729114720123690800,10.379690673828126,0.00015271181473508477,0.00030542362947016954,0
1729114720157023700,10.413023681640626,-0.00015271181473508477,-0.00007635590736754239,-0.0004581354442052543
1729114720190356700,10.446356689453125,-0.00015271181473508477,0.0005344913806766272,0.0006108472589403391
1729114720223689700,10.479689697265625,0.00030542362947016954,-0.00007635590736754239,0.0004581354442052543
1729114720257022700,10.513022705078125,-0.00015271181473508477,0.00022906772210262716,0
1729114720290356000,10.54635595703125,0.0007635590736754239,-0.00007635590736754239,0
1729114720323689000,10.57968896484375,0.0004581354442052543,-0.00007635590736754239,0
1729114720357022000,10.61302197265625,0.00030542362947016954,-0.00007635590736754239,0
1729114720390355000,10.64635498046875,0.0004581354442052543,-0.00007635590736754239,0
1729114720423688000,10.67968798828125,0,0.00007635590736754239,0.00022906772210262716
1729114720457021000,10.71302099609375,0.00038177953683771193,-0.00007635590736754239,0
1729114720490354000,10.74635400390625,-0.00015271181473508477,0.00038177953683771193,0
1729114720523687000,10.77968701171875,0.00038177953683771193,-0.00007635590736754239,0
1729114720557020000,10.81302001953125,0.00038177953683771193,-0.0004581354442052543,0.00038177953683771193
1729114720590353200,10.846353271484375,-0.00022906772210262716,-0.00015271181473508477,0
1729114720623686100,10.87968603515625,-0.00022906772210262716,-0.00015271181473508477,0
1729114720657019100,10.91301904296875,-0.00022906772210262716,-0.00007635590736754239,0.00022906772210262716
1729114720690352000,10.94635205078125,0.00007635590736754239,-0.00007635590736754239,0.00038177953683771193
1729114720723685000,10.97968505859375,-0.00030542362947016954,0,0
1729114720757018000,11.01301806640625,-0.00030542362947016954,0,-0.0006108472589403391
1729114720790351000,11.04635107421875,-0.00007635590736754239,0.0005344913806766272,-0.00022906772210262716
1729114720823684000,11.07968408203125,-0.00030542362947016954,0.00015271181473508477,-0.00007635590736754239
1729114720857017000,11.11301708984375,0.00030542362947016954,0.0004581354442052543,-0.00007635590736754239
1729114720890350300,11.146350341796875,-0.00022906772210262716,0.0005344913806766272,0.0004581354442052543
1729114720923683300,11.179683349609375,-0.00030542362947016954,-0.00007635590736754239,0.00015271181473508477
1729114720957016300,11.213016357421875,-0.00030542362947016954,-0.00007635590736754239,0.00030542362947016954
1729114720990349300,11.246349365234375,-0.00015271181473508477,0.0004581354442052543,-0.00007635590736754239
1729114721023682300,11.279682373046874,0.00030542362947016954,-0.00007635590736754239,-0.00007635590736754239
1729114721057015300,11.313015380859374,-0.00030542362947016954,-0.00007635590736754239,0.00038177953683771193
1729114721090348300,11.346348388671874,-0.00022906772210262716,-0.00007635590736754239,-0.00015271181473508477
1729114721123681300,11.379681396484376,-0.00007635590736754239,-0.00007635590736754239,-0.0005344913806766272
1729114721157014300,11.41301416015625,-0.00022906772210262716,0.0004581354442052543,-0.00007635590736754239
1729114721190347500,11.446347412109375,0.00022906772210262716,-0.00007635590736754239,0.00007635590736754239
1729114721223680500,11.479680419921875,0.00038177953683771193,-0.0007635590736754239,0.0005344913806766272
1729114721257013500,11.513013427734375,-0.00007635590736754239,-0.00015271181473508477,-0.00007635590736754239
1729114721290346500,11.546346435546875,-0.00015271181473508477,-0.00015271181473508477,-0.00007635590736754239
1729114721323679500,11.579679443359375,0.00030542362947016954,-0.0006108472589403391,-0.00022906772210262716
1729114721357012500,11.613012451171874,-0.00015271181473508477,-0.0004581354442052543,0.00022906772210262716
1729114721390345500,11.646345458984374,-0.00015271181473508477,-0.00015271181473508477,-0.00007635590736754239
1729114721423678500,11.679678466796876,-0.00022906772210262716,0.0004581354442052543,-0.00007635590736754239
1729114721457011700,11.71301171875,-0.00030542362947016954,0.00038177953683771193,0.00038177953683771193
1729114721490344700,11.7463447265625,-0.00015271181473508477,0.0005344913806766272,0.00022906772210262716
1729114721523677700,11.779677734375,-0.00015271181473508477,-0.00007635590736754239,0.000687203137204051
1729114721557010700,11.8130107421875,-0.00015271181473508477,0.0005344913806766272,0.0004581354442052543
1729114721590343700,11.84634375,-0.00007635590736754239,0.0004581354442052543,-0.00022906772210262716
1729114721623676700,11.8796767578125,-0.0004581354442052543,0.0005344913806766272,0.0005344913806766272
1729114721657009700,11.913009765625,-0.00038177953683771193,0.00015271181473508477,0.00007635590736754239
1729114721690342700,11.9463427734375,-0.00007635590736754239,0.0005344913806766272,0.0004581354442052543
1729114721723675600,11.979675537109374,0.0004581354442052543,0,-0.00015271181473508477
1729114721757009000,12.0130087890625,0.00007635590736754239,0.00030542362947016954,0.00022906772210262716
1729114721790342000,12.046341796875,-0.00015271181473508477,0.00030542362947016954,-0.00015271181473508477
1729114721823675000,12.0796748046875,0.00038177953683771193,0.00038177953683771193,-0.000687203137204051
1729114721857007900,12.1130078125,-0.00007635590736754239,-0.00015271181473508477,-0.000687203137204051
1729114721890340900,12.1463408203125,0.00007635590736754239,0.00007635590736754239,-0.00022906772210262716
1729114721923673900,12.179673828125,0.0005344913806766272,-0.00038177953683771193,0.00015271181473508477
1729114721957006800,12.2130068359375,-0.00007635590736754239,-0.000687203137204051,-0.0007635590736754239
1729114721990339800,12.24633984375,0.0004581354442052543,-0.00015271181473508477,-0.00022906772210262716
1729114722023672800,12.2796728515625,-0.00007635590736754239,0.00038177953683771193,-0.00022906772210262716
1729114722057006000,12.313006103515624,0.00015271181473508477,-0.0005344913806766272,0.00038177953683771193
1729114722090339000,12.346339111328126,0.0004581354442052543,0.00030542362947016954,-0.00022906772210262716
1729114722123672000,12.379672119140626,0.0004581354442052543,0.00038177953683771193,-0.00022906772210262716
1729114722157005000,12.413005126953125,-0.00007635590736754239,0,-0.00015271181473508477
1729114722190338000,12.446338134765625,0.00015271181473508477,0.00015271181473508477,-0.00015271181473508477
1729114722223671000,12.479671142578125,0,-0.000687203137204051,-0.0006108472589403391
1729114722257004000,12.513004150390625,-0.00007635590736754239,-0.00022906772210262716,-0.00015271181473508477
1729114722290337000,12.5463369140625,0.0004581354442052543,-0.0006108472589403391,0.00030542362947016954
1729114722323670000,12.579669921875,0.0004581354442052543,0.00015271181473508477,-0.00007635590736754239
1729114722357003300,12.613003173828124,0.00030542362947016954,-0.00015271181473508477,-0.00007635590736754239
1729114722390336300,12.646336181640624,-0.00015271181473508477,-0.00015271181473508477,-0.00007635590736754239
1729114722423669200,12.679669189453126,0.00038177953683771193,0.0004581354442052543,-0.00007635590736754239
1729114722457002200,12.713002197265626,0.00007635590736754239,-0.00015271181473508477,-0.00007635590736754239
1729114722490335200,12.746335205078125,-0.00007635590736754239,0.0004581354442052543,-0.00007635590736754239
1729114722523668200,12.779668212890625,-0.00022906772210262716,-0.00015271181473508477,0
1729114722557001200,12.813001220703125,-0.00015271181473508477,-0.00022906772210262716,-0.0005344913806766272
1729114722590334200,12.846334228515625,-0.00030542362947016954,-0.00007635590736754239,0
1729114722623667200,12.879667236328125,-0.00007635590736754239,-0.00007635590736754239,0
1729114722657000400,12.91300048828125,0.00030542362947016954,-0.000687203137204051,0
1729114722690333400,12.94633349609375,-0.00030542362947016954,0,0.00007635590736754239
1729114722723666400,12.97966650390625,-0.00030542362947016954,-0.00007635590736754239,-0.00030542362947016954
1729114722756999400,13.01299951171875,0.00030542362947016954,-0.00007635590736754239,0.00038177953683771193
1729114722790332400,13.04633251953125,-0.00030542362947016954,0.0005344913806766272,0
1729114722823665400,13.07966552734375,-0.00030542362947016954,0,0
1729114722856998400,13.112998291015625,-0.00030542362947016954,-0.00007635590736754239,0
1729114722890331400,13.146331298828125,-0.00030542362947016954,-0.00007635590736754239,0
1729114722923664400,13.179664306640625,-0.00030542362947016954,0.0004581354442052543,0
1729114722956997600,13.21299755859375,-0.00030542362947016954,-0.00007635590736754239,0
1729114722990330600,13.24633056640625,-0.00007635590736754239,0.00030542362947016954,-0.0006108472589403391
1729114723023663600,13.27966357421875,-0.00030542362947016954,-0.00007635590736754239,-0.00022906772210262716
1729114723056996600,13.31299658203125,-0.00015271181473508477,-0.00007635590736754239,0
1729114723090329600,13.34632958984375,-0.00015271181473508477,-0.00007635590736754239,0
1729114723123662600,13.37966259765625,0.00015271181473508477,0.00015271181473508477,0.00038177953683771193
1729114723156995600,13.41299560546875,-0.00022906772210262716,-0.0006108472589403391,0.0018325417768210173
1729114723190328600,13.44632861328125,-0.0017561858985573053,-0.0032833039294928312,0.0019088976550847292
1729114723223661600,13.47966162109375,-0.005497625097632408,-0.00259610079228878,0.0032069480512291193
1729114723256994800,13.512994873046875,-0.0130568603053689,-0.00038177953683771193,0.0007635590736754239
1729114723290327800,13.546327880859375,-0.008551862090826035,0.0015271181473508477,0.004275931045413017
1729114723323660800,13.579660888671874,-0.014813045971095562,-0.010842538438737392,0.012446013279259205
1729114723356993800,13.612993896484374,-0.04940227046608925,-0.01588202826678753,0.009849912486970425
1729114723390326800,13.646326904296876,-0.05337277799844742,-0.004504998680204153,0.008399149402976036
1729114723423659800,13.67965966796875,-0.06482616811990738,0.009239064529538155,0.007024743594229221
1729114723456992800,13.71299267578125,-0.08971819281578064,-0.0007635590736754239,0.004963133949786425
1729114723490325800,13.74632568359375,-0.12453648447990417,-0.005573981441557407,0.006108472589403391
1729114723523658800,13.77965869140625,-0.1265217363834381,0.010766183026134968,0.01046075951308012
1729114723556992000,13.812991943359375,-0.13293562829494476,0.015194825828075409,0.011835165321826935
1729114723590325000,13.846324951171875,-0.13263021409511566,0.013896775431931019,0.016187451779842377
1729114723623658000,13.879657958984374,-0.17035003006458282,0.00038177953683771193,0.024662958458065987
1729114723656991000,13.912990966796874,-0.20547375082969666,-0.009315420873463154,0.029626091942191124
1729114723690324000,13.946323974609374,-0.24181915819644928,-0.011453386396169662,0.02107422985136509
1729114723723657000,13.979656982421876,-0.30397287011146545,-0.014431266114115715,0.032069481909275055
1729114723756990000,14.012989990234376,-0.31298285722732544,-0.02710634656250477,-0.05925218388438225
1729114723790323000,14.046322998046875,-0.285647451877594,-0.03497100621461868,-0.02557922899723053
1729114723823656000,14.079656005859375,-0.24273543059825897,-0.02351761981844902,0.017714571207761765
1729114723856989200,14.1129892578125,-0.20608459413051605,-0.018630841746926308,-0.02367033064365387
1729114723890322200,14.146322265625,-0.18073442578315735,-0.00015271181473508477,0.014049487188458443
1729114723923655200,14.1796552734375,-0.17600037157535553,-0.02076880633831024,-0.013667707331478596
1729114723956988200,14.21298828125,-0.16492876410484314,0.031000498682260513,-0.00519220158457756
1729114723990321200,14.246321044921874,-0.15866757929325104,0.015423892997205257,-0.020845163613557816
1729114724023654100,14.279654052734376,-0.14942851662635803,0.006261184345930815,-0.007253811229020357
1729114724056987100,14.312987060546876,-0.13980767130851746,-0.009849912486970425,-0.026342788711190224
1729114724090320100,14.346320068359375,-0.13179029524326324,-0.006108472589403391,-0.013133215717971325
1729114724123653400,14.3796533203125,-0.11346487700939178,0.037567105144262314,-0.040544986724853516
1729114724156986400,14.412986328125,-0.13347013294696808,-0.005421269219368696,0.054899897426366806
1729114724190319400,14.4463193359375,-0.12354385852813721,-0.027411770075559616,0.05215108394622803
1729114724223652400,14.47965234375,-0.09720107167959213,-0.0018325417768210173,-0.0050394898280501366
1729114724256985300,14.5129853515625,-0.1041494607925415,-0.0025197449140250683,0.02832804247736931
1729114724290318300,14.546318359375,-0.09659022092819214,-0.013209572061896324,0.036727190017700195
1729114724323651300,14.5796513671875,-0.06497887521982193,-0.022219568490982056,-0.018096350133419037
1729114724356984300,14.612984375,0.014431266114115715,0.044668205082416534,0.039170581847429276
1729114724390317300,14.6463173828125,-0.029778804630041122,0.03367295488715172,-0.04321744292974472
1729114724423650600,14.679650634765625,0.008857285603880882,0.005573981441557407,0.004352286923676729
1729114724456983600,14.712983642578125,0.09277242422103882,0.014583977870643139,-0.004504998680204153
1729114724490316500,14.746316650390625,0.14286190271377563,-0.027411770075559616,-0.026190076023340225
1729114724523649500,14.7796494140625,0.22929678857326508,-0.0035123717971146107,0.01038440316915512
1729114724556982500,14.812982421875,0.3007659316062927,0.038483377546072006,-0.021914144977927208
1729114724590315500,14.8463154296875,0.4521796703338623,-0.02473931387066841,-0.03588727489113808
1729114724623648500,14.8796484375,0.6306998133659363,-0.030313294380903244,0.011377030052244663
1729114724656981500,14.9129814453125,0.8792382478713989,-0.0024433890357613564,-0.020463382825255394
1729114724690314500,14.946314453125,1.0650122165679932,0.11438114941120148,-0.019776180386543274
1729114724723647700,14.979647705078126,0.8186880350112915,0.038483377546072006,-0.009620844386518002
1729114724756980700,15.012980712890625,0.6730009913444519,-0.0011453386396169662,0.03680354729294777
1729114724790313700,15.046313720703125,0.6462000608444214,-0.06978929787874222,-0.004275931045413017
1729114724823646700,15.079646728515625,0.7711182832717896,0.007253811229020357,0.01763821393251419
1729114724856979700,15.112979736328125,0.9298622608184814,0.024662958458065987,-0.0295497365295887
1729114724890312700,15.146312744140625,1.081810474395752,-0.016798298805952072,0.046424392610788345
1729114724923645700,15.179645751953124,1.2186403274536133,-0.006184828467667103,0.01748550310730934
1729114724956978700,15.212978759765624,1.353790283203125,0.026190076023340225,-0.007024743594229221
1729114724990311700,15.246311767578124,1.4067811965942383,0.026571854948997498,-0.04367557913064957
1729114725023645000,15.27964501953125,1.409911870956421,-0.01748550310730934,0.004199574701488018
1729114725056978000,15.31297802734375,1.3715811967849731,0.00007635590736754239,-0.005573981441557407
1729114725090311000,15.346310791015625,1.3253858089447021,-0.022677704691886902,-0.009315420873463154
1729114725123644000,15.379643798828125,1.262544870376587,0.0037414394319057465,-0.03497100621461868
1729114725156977000,15.412976806640625,1.2077213525772095,-0.03901786729693413,-0.002061609411612153
1729114725190310000,15.446309814453125,1.1452622413635254,0.04909684881567955,-0.044362783432006836
1729114725223643000,15.479642822265625,1.10364830493927,0.044515494257211685,-0.013744063675403595
1729114725256976000,15.512975830078124,1.0698226690292358,0.028251685202121735,-0.055052608251571655
1729114725290308900,15.546308837890624,1.0078216791152954,0.05077667906880379,-0.060779303312301636
1729114725323642000,15.57964208984375,0.9234483242034912,-0.012140588834881783,-0.027564482763409615
1729114725356975000,15.61297509765625,0.7335512042045593,-0.02733541466295719,-0.004199574701488018
1729114725390308000,15.64630810546875,0.5026509165763855,-0.036039989441633224,0.014202198944985867
1729114725423641000,15.67964111328125,0.3343625068664551,-0.10140064358711243,-0.06139015033841133
1729114725456974000,15.71297412109375,0.18905723094940186,-0.135226309299469,0.01511846948415041
1729114725490307000,15.74630712890625,0.08162446320056915,-0.053143709897994995,-0.008246437646448612
1729114725523640000,15.77964013671875,-0.028098974376916885,0.07139277458190918,0.02351761981844902
1729114725556973000,15.81297314453125,-0.17111359536647797,0.05344913527369499,-0.12255123257637024
1729114725590306000,15.84630615234375,-0.2644205093383789,0.030007870867848396,-0.0016034740256145597
1729114725623639300,15.879639404296874,-0.3342861533164978,-0.018554486334323883,-0.018096350133419037
1729114725656972300,15.91297216796875,-0.37414395809173584,0.0017561858985573053,0.007406522985547781
1729114725690305300,15.94630517578125,-0.4169796109199524,0.02886253222823143,-0.04359922185540199
1729114725723638300,15.97963818359375,-0.5178457498550415,0.02886253222823143,-0.005955760832875967
1729114725756971300,16.01297119140625,-0.6269583702087402,0.0034360159188508987,0.04604261368513107
1729114725790304300,16.04630419921875,-0.7545490860939026,-0.04619532451033592,0.027717193588614464
1729114725823637200,16.07963720703125,-0.867784857749939,0.015042114071547985,0.08765657991170883
1729114725856970200,16.11297021484375,-0.9879691004753113,-0.04008685052394867,-0.022601349279284477
1729114725890303200,16.14630322265625,-1.1019684076309204,0.049554985016584396,0.10697462409734726
1729114725923636500,16.179636474609374,-1.184661865234375,-0.09597937762737274,-0.007941014133393764
1729114725956969500,16.212969482421876,-1.2911020517349243,0.02680092304944992,0.1146102175116539
1729114725990302500,16.246302490234374,-1.3661599159240723,-0.024815669283270836,0.02924431301653385
1729114726023635500,16.279635498046876,-1.496728539466858,-0.031000498682260513,0.01252236869186163
1729114726056968400,16.312968505859374,-1.5811781883239746,-0.05512896552681923,-0.01046075951308012
1729114726090301400,16.346301513671875,-1.686320185661316,-0.05024218559265137,-0.10323318839073181
1729114726123634400,16.379634521484373,-1.7357988357543945,-0.051463883370161057,-0.08063183724880219
1729114726156967400,16.412967529296875,-1.7797034978866577,0.019928891211748123,-0.07971556484699249
1729114726190300400,16.446300537109376,-1.8073443174362183,-0.01832541823387146,-0.08070819079875946
1729114726223633700,16.479633544921874,-1.8440715074539185,-0.01885990984737873,-0.0680331140756607
1729114726256966700,16.512966552734376,-1.8390320539474487,-0.043446511030197144,-0.055587101727724075
1729114726290299600,16.546299560546874,-1.8126128911972046,-0.05856497958302498,0.046729814261198044
1729114726323632600,16.579632568359376,-1.7564913034439087,-0.09804098308086395,0.02680092304944992
1729114726356965600,16.612965576171874,-1.6897562742233276,-0.12232216447591782,0.08315158635377884
1729114726390298600,16.646298583984375,-1.6605119705200195,-0.13270656764507294,0.017409147694706917
1729114726423631600,16.679631591796873,-1.5831633806228638,-0.1921878159046173,-0.013438640162348747
1729114726456964600,16.712964599609375,-1.5339901447296143,-0.23028941452503204,0.06604786217212677
1729114726490297900,16.7462978515625,-1.5094798803329468,-0.23181653022766113,-0.10468395054340363
1729114726523630800,16.779630859375,-1.5435346364974976,-0.011987877078354359,-0.009849912486970425
1729114726556963800,16.8129638671875,-1.5265836715698242,-0.05566345527768135,-0.0650552362203598
1729114726590296800,16.846296875,-1.3696722984313965,-0.09139802306890488,-0.009391776286065578
1729114726623629800,16.8796298828125,-1.225359559059143,-0.056808795779943466,-0.06910209357738495
1729114726656962800,16.912962890625,-1.0855519771575928,0.04100312292575836,0.010766183026134968
1729114726690295800,16.9462958984375,-0.9674293398857117,0.0361163429915905,0.02542651630938053
1729114726723628800,16.97962890625,-0.827468991279602,0.016874656081199646,-0.07261446863412857
1729114726756961800,17.0129619140625,-0.6745280623435974,0.072232685983181,0.03184041380882263
1729114726790295000,17.046294921875,-0.5465555787086487,0.0680331140756607,-0.09414683282375336
1729114726823628000,17.0796279296875,-0.3620797097682953,0.10468395054340363,-0.05306735634803772
1729114726856961000,17.1129609375,-0.22433365881443024,0.17752748727798462,-0.06055023521184921
1729114726890294000,17.1462939453125,-0.13148486614227295,0.255715936422348,-0.06314633786678314
1729114726923627000,17.179626953125,-0.10140064358711243,0.39468368887901306,-0.022601349279284477
1729114726956960000,17.2129599609375,-0.15210096538066864,0.26457321643829346,-0.1424037665128708
1729114726990293000,17.24629296875,-0.13156123459339142,-0.02489202655851841,-0.03527642786502838
1729114727023626000,17.2796259765625,-0.05276193097233772,-0.08941277116537094,0.08154810965061188
1729114727056959000,17.312958984375,-0.019088976085186005,-0.047111593186855316,0.034818295389413834
1729114727090292200,17.346292236328125,0.005421269219368696,-0.02664821222424507,-0.0036650835536420345
1729114727123625200,17.379625244140627,0.019623467698693275,-0.01832541823387146,0.04772244393825531
1729114727156958200,17.412958251953125,0.06841489672660828,-0.023441264405846596,0.05543438717722893
1729114727190291200,17.446291259765626,0.09086353331804276,0.04443913698196411,0.0561215914785862
1729114727223624200,17.479624267578124,0.18905723094940186,-0.0007635590736754239,0.07948649674654007
1729114727256957200,17.512957275390626,0.3100813329219818,-0.017561858519911766,-0.003359660040587187
1729114727290290200,17.546290283203124,0.45439401268959045,0.01038440316915512,0.06360447406768799
1729114727323623200,17.579623046875,0.5248705148696899,0.09613208472728729,-0.023441264405846596
1729114727356956200,17.6129560546875,0.5449520945549011,0.09345962852239609,-0.045889899134635925
1729114727390289400,17.646289306640625,0.5806866884231567,0.06581879407167435,-0.07322531193494797
1729114727423622400,17.679622314453123,0.5880932211875916,0.055052608251571655,-0.1023932695388794
1729114727456955400,17.712955322265625,0.6042042970657349,0.0295497365295887,-0.03390202298760414
1729114727490288400,17.746288330078126,0.6369609832763672,0.03733803704380989,-0.015194825828075409
1729114727523621400,17.779621337890624,0.7150730490684509,-0.06917845457792282,-0.1188097894191742
1729114727556954400,17.812954345703126,0.8645015954971313,-0.025884652510285378,0.010995250195264816
1729114727590287400,17.846287353515624,0.9858311414718628,-0.003970507066696882,-0.016340164467692375
1729114727623620400,17.879620361328126,1.0941801071166992,0.019928891211748123,-0.03008422814309597
1729114727656953300,17.912953369140624,1.1579372882843018,-0.00007635590736754239,-0.06131379306316376
1729114727690286600,17.94628662109375,1.2085613012313843,0.02038702741265297,-0.009773556143045425
1729114727723619600,17.97961962890625,1.2521605491638184,-0.014278554357588291,0.019318044185638428
1729114727756952600,18.01295263671875,1.277281641960144,-0.001985253533348441,0.014202198944985867
1729114727790285600,18.04628564453125,1.2558256387710571,0.07406523078680038,0.007941014133393764
1729114727823618600,18.07961865234375,1.2359731197357178,0.04474456235766411,-0.049860406666994095
1729114727856951600,18.11295166015625,1.2419288158416748,0.08612946420907974,0.024586603045463562
1729114727890284500,18.146284423828124,1.2307045459747314,0.034283801913261414,-0.007253811229020357
1729114727923617500,18.179617431640626,1.2613232135772705,0.062306419014930725,-0.030160583555698395
1729114727956950500,18.212950439453124,1.237958312034607,0.036727190017700195,-0.04856235533952713
1729114727990283800,18.24628369140625,1.225054144859314,0.07398887723684311,0.002061609411612153
1729114728023616800,18.27961669921875,1.1984059810638428,0.02504473738372326,-0.07024743407964706
1729114728056949800,18.31294970703125,1.173284888267517,0.019470756873488426,-0.019623467698693275
1729114728090282800,18.34628271484375,1.1067025661468506,-0.022601349279284477,-0.03497100621461868
1729114728123615700,18.37961572265625,1.0253071784973145,-0.009315420873463154,-0.07887565344572067
1729114728156948700,18.41294873046875,0.9877400398254395,-0.0590994730591774,-0.12048961967229843
1729114728190281700,18.44628173828125,0.7981482744216919,-0.0781884491443634,-0.11285403370857239
1729114728223614700,18.47961474609375,0.6312342882156372,-0.10155335813760757,-0.1020878478884697
1729114728256947700,18.51294775390625,0.42728766798973083,-0.16706672310829163,-0.06016845628619194
1729114728290281000,18.546281005859374,0.299391508102417,-0.07101099193096161,-0.0456608310341835
1729114728323614000,18.579614013671875,0.16668494045734406,0.02680092304944992,0.030695075169205666
1729114728356947000,18.612947021484374,0.09827005118131638,-0.0364217683672905,-0.04146125912666321
1729114728390280000,18.646280029296875,0.06818582862615585,-0.031916771084070206,0.03306210786104202
1729114728423613000,18.679613037109377,0.08330429345369339,-0.014583977870643139,0.034665580838918686
1729114728456946000,18.71294580078125,0.043828289955854416,-0.01969982497394085,-0.0017561858985573053
1729114728490279000,18.74627880859375,0.04130854457616806,0.01252236869186163,0.03749075159430504
1729114728523612000,18.77961181640625,0.042606595903635025,0.010995250195264816,-0.03245126083493233
1729114728556945000,18.81294482421875,0.0358109213411808,0.08284615725278854,0.08017370104789734
1729114728590278100,18.846278076171874,0.024128466844558716,0.027869906276464462,0.03458922728896141
1729114728623611100,18.879611083984376,0.03894151374697685,-0.02229592576622963,-0.055052608251571655
1729114728656944000,18.912944091796874,0.16019469499588013,0.022754060104489326,0.01817270554602146
1729114728690277000,18.946277099609375,0.23303823173046112,-0.007635590620338917,-0.11980241537094116
1729114728723610000,18.979610107421873,0.31977853178977966,0.02145601063966751,-0.02557922899723053
1729114728756943000,19.012943115234375,0.323596328496933,-0.009009997360408306,-0.0036650835536420345
1729114728790276000,19.046276123046876,0.3020639717578888,-0.0029778804164379835,-0.060932014137506485
1729114728823609000,19.079609130859374,0.2525089979171753,0.052609220147132874,0.007482878863811493
1729114728856942300,19.1129423828125,0.183865025639534,0.03649812191724777,-0.008857285603880882
1729114728890275300,19.146275390625,0.14316733181476593,0.09399411827325821,0.036039989441633224
1729114728923608300,19.1796083984375,0.11140327155590057,0.03802524134516716,-0.05131116881966591
1729114728956941300,19.21294140625,0.10369132459163666,0.019928891211748123,0.000687203137204051
1729114728990274300,19.2462744140625,0.08513683825731277,-0.0006108472589403391,-0.06352811306715012
1729114729023607300,19.279607177734373,0.07230904698371887,0.05841226875782013,0.014431266114115715
1729114729056940300,19.312940185546875,0.08223531395196915,0.04993676394224167,-0.038636088371276855
1729114729090273300,19.346273193359377,0.06452073901891708,0.09353598952293396,-0.02038702741265297
1729114729123606300,19.379606201171875,0.04092676565051079,0.08727480471134186,-0.10483665764331818
1729114729156939500,19.412939453125,0.057801421731710434,0.012293301522731781,0.031534988433122635
1729114729190272500,19.4462724609375,0.10560022294521332,-0.0847550556063652,-0.007330167107284069
1729114729223605500,19.47960546875,0.08353336155414581,-0.09086353331804276,0.03894151374697685
1729114729256938500,19.5129384765625,0.009697199799120426,0.008170082233846188,0.007330167107284069
1729114729290271500,19.546271484375,-0.007941014133393764,0.06574243307113647,0.029855160042643547
1729114729323604500,19.5796044921875,0.03168770298361778,0.016111096367239952,0.021379653364419937
1729114729356937500,19.6129375,0.06223006546497345,-0.019394399598240852,0.0459662564098835
1729114729390270500,19.6462705078125,0.04023956134915352,0.008017370477318764,0.027946261689066887
1729114729423603500,19.679603515625,0.04283566400408745,-0.013667707331478596,0.020310672000050545
1729114729456936700,19.712936767578125,0.060932014137506485,-0.022754060104489326,0.01817270554602146
1729114729490269700,19.746269775390626,0.03352024406194687,-0.0014507622690871358,0.00992626789957285
1729114729523602700,19.779602783203124,-0.01710372418165207,-0.0028251686599105597,0.007177455350756645
1729114729556935700,19.812935791015626,-0.01916533336043358,-0.023746687918901443,0.006642963737249374
1729114729590268700,19.8462685546875,0.01969982497394085,-0.015271181240677834,0.008780929259955883
1729114729623601700,19.8796015625,-0.0024433890357613564,-0.0030542362947016954,0.00129805039614439
1729114729656934700,19.9129345703125,-0.009620844386518002,-0.013133215717971325,0.003970507066696882
1729114729690267600,19.946267578125,0.013438640162348747,-0.02870982140302658,0.0130568603053689
1729114729723600600,19.9796005859375,0.019928891211748123,-0.03458922728896141,0.013285927474498749
1729114729756934000,20.012933837890625,0.014125842601060867,-0.028251685202121735,0.01046075951308012
1729114729790267000,20.046266845703126,0.010842538438737392,-0.01122431829571724,0.0038941511884331703
1729114729823599900,20.079599853515624,-0.002672456670552492,-0.0010689827613532543,-0.0009926267666742206
1729114729856932900,20.112932861328126,-0.006261184345930815,0.0007635590736754239,-0.0022906772792339325
1729114729890265900,20.146265869140624,0.0022906772792339325,0.0009162708884105086,-0.0005344913806766272
1729114729923598800,20.179598876953126,0.0005344913806766272,0.0023670331574976444,-0.0019088976550847292
1729114729956931800,20.212931884765624,-0.0030542362947016954,0.0029778804164379835,-0.0024433890357613564
1729114729990264800,20.246264892578125,0.00038177953683771193,0.0011453386396169662,-0.00007635590736754239
1729114730023597800,20.279597900390623,0.00030542362947016954,0.0008399150101467967,-0.00030542362947016954
1729114730056931000,20.31293115234375,-0.0005344913806766272,0.0011453386396169662,-0.00015271181473508477
1729114730090264000,20.34626416015625,0.0005344913806766272,0.0006108472589403391,0.0005344913806766272
1729114730123597000,20.37959716796875,0.00007635590736754239,-0.00007635590736754239,0.00038177953683771193
1729114730156930000,20.412929931640626,0.00022906772210262716,-0.00030542362947016954,0.0005344913806766272
1729114730190263000,20.446262939453124,0.0005344913806766272,-0.000687203137204051,0.0005344913806766272
1729114730223596000,20.479595947265626,0.0005344913806766272,-0.000687203137204051,0.0011453386396169662
1729114730256929000,20.512928955078124,0.00007635590736754239,-0.000687203137204051,0.00038177953683771193
1729114730290262000,20.546261962890625,0.0005344913806766272,-0.00007635590736754239,-0.00007635590736754239
1729114730323595000,20.579594970703123,0.00038177953683771193,0.00007635590736754239,0.00038177953683771193
1729114730356928300,20.61292822265625,0.0005344913806766272,-0.00007635590736754239,-0.00007635590736754239
1729114730390261200,20.64626123046875,-0.00007635590736754239,-0.00007635590736754239,0.0004581354442052543
1729114730423594200,20.67959423828125,0.0011453386396169662,-0.00007635590736754239,-0.00007635590736754239
1729114730456927200,20.71292724609375,0.0005344913806766272,-0.00007635590736754239,-0.0004581354442052543
1729114730490260200,20.74626025390625,0.0005344913806766272,0.0005344913806766272,-0.00007635590736754239
1729114730523593200,20.77959326171875,0.000687203137204051,-0.00015271181473508477,-0.00007635590736754239
1729114730556926200,20.81292626953125,-0.00007635590736754239,-0.00007635590736754239,-0.00007635590736754239
1729114730590259200,20.84625927734375,-0.00030542362947016954,-0.00007635590736754239,0.0005344913806766272
1729114730623592200,20.87959228515625,0.0010689827613532543,-0.00007635590736754239,-0.00007635590736754239
1729114730656925400,20.912925537109373,0.0005344913806766272,0.0004581354442052543,0.0004581354442052543
1729114730690258400,20.946258544921875,0.0005344913806766272,-0.00007635590736754239,-0.00007635590736754239
1729114730723591400,20.97959130859375,0.0009162708884105086,-0.00007635590736754239,0.00038177953683771193
1729114730756924400,21.01292431640625,0.0005344913806766272,-0.0006108472589403391,-0.00007635590736754239
1729114730790257400,21.04625732421875,0.0036650835536420345,-0.0006108472589403391,0.0015271181473508477
1729114730823590400,21.07959033203125,0.015576604753732681,-0.0015271181473508477,0.0016798300202935934
1729114730856923400,21.11292333984375,0.030389651656150818,-0.002061609411612153,0.00259610079228878
1729114730890256400,21.14625634765625,0.042606595903635025,-0.008475505746901035,0.0005344913806766272
1729114730923589400,21.17958935546875,0.049554985016584396,-0.0016798300202935934,-0.0005344913806766272
1729114730956922600,21.212922607421874,0.09116895496845245,-0.012216945178806782,0.005879404954612255
1729114730990255600,21.246255615234375,0.21288026869297028,-0.0038177953101694584,0.0016034740256145597
1729114731023588600,21.279588623046877,0.4142307937145233,-0.000687203137204051,-0.0029015245381742716
1729114731056921600,21.312921630859375,0.6780404448509216,-0.00129805039614439,-0.0029015245381742716
1729114731090254600,21.346254638671876,1.0016367435455322,-0.019088976085186005,-0.0038177953101694584
1729114731123587600,21.379587646484374,1.3559281826019287,-0.026495499536395073,0.0031305921729654074
1729114731156920600,21.412920654296876,1.6586030721664429,-0.029473381116986275,-0.010308047756552696
1729114731190253600,21.446253662109374,1.8898850679397583,-0.011911521665751934,-0.0032833039294928312
1729114731223586800,21.4795869140625,2.126053810119629,0.015500249341130257,-0.01794363744556904
1729114731256919800,21.512919921875,2.3558852672576904,0.030313294380903244,-0.02473931387066841
1729114731290252800,21.546252685546875,2.5017249584198,0.048486001789569855,-0.04214845970273018
1729114731323585800,21.579585693359373,2.5591444969177246,0.06978929787874222,-0.06551336497068405
1729114731356918800,21.612918701171875,2.555403232574463,0.06673506647348404,-0.05993938818573952
1729114731390251800,21.646251708984376,2.4929440021514893,0.05894676223397255,-0.053830914199352264
1729114731423584800,21.679584716796874,2.417351722717285,-0.018249060958623886,-0.02680092304944992
1729114731456917800,21.712917724609376,2.329007863998413,-0.008322793990373611,-0.04947862774133682
1729114731490250800,21.746250732421874,2.2191317081451416,-0.021150587126612663,-0.04604261368513107
1729114731523584000,21.779583984375,2.1543819904327393,-0.016721943393349648,-0.023823043331503868
1729114731556917000,21.8129169921875,2.1072702407836914,-0.012140588834881783,-0.032603971660137177
1729114731590250000,21.84625,2.0943660736083984,-0.03886515647172928,-0.016645587980747223
1729114731623583000,21.8795830078125,2.083447217941284,-0.04130854457616806,-0.019928891211748123
1729114731656916000,21.912916015625,2.0807747840881348,-0.014049487188458443,-0.023593975231051445
1729114731690249000,21.9462490234375,2.0936026573181152,-0.014813045971095562,-0.018096350133419037
1729114731723582000,21.97958203125,2.121014356613159,-0.007711946498602629,-0.015194825828075409
1729114731756915000,22.0129150390625,2.126970052719116,0.0035887276753783226,-0.02244863659143448
1729114731790248000,22.046248046875,2.155374526977539,-0.0038941511884331703,-0.04092676565051079
1729114731823581200,22.079581298828124,2.19179630279541,0.005268557462841272,-0.01954711228609085
1729114731856914200,22.1129140625,2.2211170196533203,-0.0016798300202935934,-0.038788799196481705
1729114731890247200,22.1462470703125,2.233410358428955,0.014278554357588291,-0.024586603045463562
1729114731923580200,22.179580078125,2.2266147136688232,0.009773556143045425,-0.034818295389413834
1729114731956913200,22.2129130859375,2.212641477584839,-0.0031305921729654074,-0.0361163429915905
1729114731990246100,22.24624609375,2.2024097442626953,0.007024743594229221,-0.02473931387066841
1729114732023579100,22.2795791015625,2.183626174926758,-0.013285927474498749,-0.028938889503479004
1729114732056912100,22.312912109375,2.1636972427368164,-0.011071606539189816,-0.02176143415272236
1729114732090245000,22.3462451171875,2.1294898986816406,0.006413896102458239,-0.0293970238417387
1729114732123578400,22.379578369140624,2.083141803741455,0.004581354558467865,-0.03306210786104202
1729114732156911400,22.412911376953126,2.030456304550171,-0.014431266114115715,-0.028557108715176582
1729114732190244400,22.446244384765624,1.8174233436584473,-0.00007635590736754239,-0.026877280324697495
1729114732223577300,22.479577392578125,1.4020471572875977,0.0325276181101799,-0.036574479192495346
1729114732256910300,22.512910400390624,0.8228875994682312,-0.0038941511884331703,-0.011377030052244663
1729114732290243300,22.546243408203125,0.2924431264400482,0.011377030052244663,-0.005497625097632408
1729114732323576300,22.579576416015627,-0.07269082218408585,-0.020997874438762665,0.007788302376866341
1729114732356909300,22.612909423828125,-0.09284878522157669,-0.051463883370161057,0.025731941685080528
1729114732390242300,22.6462421875,0.01511846948415041,-0.03336753323674202,0.006719320081174374
1729114732423575600,22.679575439453124,0.022219568490982056,-0.018936265259981155,0.005803049076348543
1729114732456908500,22.712908447265626,-0.015194825828075409,-0.0021379655227065086,-0.0014507622690871358
1729114732490241500,22.746241455078124,-0.00786465872079134,0.0014507622690871358,-0.0019088976550847292
1729114732523574500,22.779574462890626,0.012446013279259205,-0.004504998680204153,0.0028251686599105597
1729114732556907500,22.812907470703124,0.0022906772792339325,-0.000687203137204051,-0.000687203137204051
1729114732590240500,22.846240478515625,-0.0035887276753783226,0.0010689827613532543,-0.000687203137204051
1729114732623573500,22.879573486328123,0.0036650835536420345,-0.00038177953683771193,-0.00030542362947016954
1729114732656906500,22.912906494140625,0.0005344913806766272,0.00030542362947016954,-0.0004581354442052543
1729114732690239500,22.946239501953126,-0.0018325417768210173,0.0005344913806766272,-0.00007635590736754239
1729114732723572700,22.97957275390625,0.0009926267666742206,0.0004581354442052543,-0.000687203137204051
1729114732756905700,23.01290576171875,-0.00038177953683771193,0.00022906772210262716,-0.00030542362947016954
1729114732790238700,23.04623876953125,-0.00030542362947016954,-0.00007635590736754239,-0.0004581354442052543
1729114732823571700,23.07957177734375,-0.00015271181473508477,-0.00007635590736754239,-0.00007635590736754239
1729114732856904700,23.11290478515625,-0.0007635590736754239,-0.0005344913806766272,-0.00007635590736754239
1729114732890237700,23.14623779296875,0.00015271181473508477,-0.00007635590736754239,0.0005344913806766272
1729114732923570700,23.17957080078125,-0.00030542362947016954,-0.00022906772210262716,-0.00007635590736754239
1729114732956903700,23.212903564453125,0,-0.0006108472589403391,-0.0006108472589403391
1729114732990236700,23.246236572265627,0,-0.00007635590736754239,-0.00007635590736754239
1729114733023570000,23.27956982421875,-0.00007635590736754239,0.00022906772210262716,-0.00007635590736754239
1729114733056903000,23.31290283203125,-0.00007635590736754239,0.0005344913806766272,-0.00007635590736754239
1729114733090236000,23.34623583984375,-0.00015271181473508477,-0.0006108472589403391,-0.00015271181473508477
1729114733123569000,23.37956884765625,-0.000687203137204051,-0.00007635590736754239,-0.000687203137204051
1729114733156902000,23.41290185546875,0.00030542362947016954,-0.00007635590736754239,-0.00007635590736754239
1729114733190235000,23.44623486328125,-0.00007635590736754239,0.00022906772210262716,-0.000687203137204051
1729114733223568000,23.47956787109375,-0.00007635590736754239,-0.00007635590736754239,0.00038177953683771193
1729114733256900900,23.51290087890625,-0.0006108472589403391,0.0005344913806766272,-0.000687203137204051
1729114733290233900,23.54623388671875,-0.0004581354442052543,0.0005344913806766272,0.00015271181473508477
1729114733323567000,23.579567138671877,0.00015271181473508477,0.0005344913806766272,-0.00007635590736754239
1729114733356900000,23.612900146484375,-0.00022906772210262716,0.0005344913806766272,-0.00007635590736754239
1729114733390233000,23.646233154296876,0.0004581354442052543,0.0005344913806766272,-0.00007635590736754239
1729114733423566000,23.679566162109374,-0.00007635590736754239,-0.0004581354442052543,0.0008399150101467967
1729114733456899000,23.712899169921876,0.001374406274408102,-0.005573981441557407,0.004886778071522713
1729114733490232000,23.746232177734374,-0.00030542362947016954,-0.013896775431931019,0.009544488042593002
1729114733523565000,23.77956494140625,-0.0030542362947016954,-0.014125842601060867,0.011529741808772087
1729114733556898000,23.81289794921875,0.0008399150101467967,-0.014736690558493137,0.014049487188458443
1729114733590231000,23.84623095703125,0.018249060958623886,-0.0010689827613532543,0.004581354558467865
1729114733623564300,23.879564208984377,0.01046075951308012,0.011911521665751934,0.0038941511884331703
1729114733656897300,23.912897216796875,0.010918894782662392,0.0023670331574976444,0.012140588834881783
1729114733690230300,23.946230224609376,0.017409147694706917,-0.0009162708884105086,0.01435491070151329
1729114733723563300,23.979563232421874,0.03451287001371384,0.011911521665751934,0.014125842601060867
1729114733756896300,24.012896240234376,0.028098974376916885,0.0067956759594380856,-0.0017561858985573053
1729114733790229200,24.046229248046874,0.022524992004036903,-0.005268557462841272,0.0050394898280501366
1729114733823562200,24.079562255859376,0.047264307737350464,-0.008704573847353458,0.008704573847353458
1729114733856895200,24.112895263671874,0.026571854948997498,-0.03077143058180809,0.01382041908800602
1729114733890228500,24.146228515625,0.01695101149380207,-0.014813045971095562,-0.03145863488316536
1729114733923561500,24.1795615234375,0.031916771084070206,-0.004428642801940441,-0.12499462068080902
1729114733956894500,24.21289453125,0.07024743407964706,0.0328330397605896,-0.05077667906880379
1729114733990227500,24.2462275390625,0.07597412914037704,-0.0051158457063138485,-0.0164165198802948
1729114734023560400,24.279560546875,0.05772506445646286,-0.0031305921729654074,-0.02435753494501114
1729114734056893400,24.3128935546875,0.05474718660116196,0.04283566400408745,-0.013973130844533443
1729114734090226400,24.346226318359374,0.06070294603705406,0.03077143058180809,-0.03886515647172928
1729114734123559400,24.379559326171876,0.0459662564098835,0.024586603045463562,-0.023059483617544174
1729114734156892400,24.412892333984374,0.04359922185540199,-0.004810422193259001,-0.028404397889971733
1729114734190225700,24.4462255859375,0.03665083646774292,-0.013667707331478596,-0.0031305921729654074
1729114734223558700,24.47955859375,0.05810684710741043,0.027029991149902344,0.02244863659143448
1729114734256891600,24.5128916015625,0.053983625024557114,0.024815669283270836,-0.05726693198084831
1729114734290224600,24.546224609375,0.05726693198084831,0.07047650218009949,-0.01763821393251419
1729114734323557600,24.5795576171875,0.05673243850469589,0.04169032722711563,0.015958385542035103
1729114734356890600,24.612890625,0.055587101727724075,0.0397050715982914,0.02214321307837963
1729114734390223600,24.6462236328125,0.05062396824359894,0.003970507066696882,-0.02817532978951931
1729114734423556600,24.679556640625,0.06620056927204132,0.010689826682209969,0.01175880990922451
1729114734456889600,24.7128896484375,0.05757235363125801,0.01725643500685692,0.027717193588614464
1729114734490222800,24.746222900390624,0.06047387793660164,0.026190076023340225,-0.02664821222424507
1729114734523555800,24.779555908203125,0.04665346071124077,0.0164165198802948,-0.00007635590736754239
1729114734556888800,24.812888916015623,0.05100574716925621,0.0038177953101694584,0.0008399150101467967
1729114734590221800,24.846221923828125,0.03145863488316536,0.0032069480512291193,0.005955760832875967
1729114734623554800,24.879554931640627,0.11338852345943451,-0.043293800204992294,-0.14377817511558533
1729114734656887800,24.9128876953125,0.07085828483104706,0.006948387715965509,0.037261683493852615
1729114734690220800,24.946220703125,0.08758022636175156,0.02924431301653385,-0.02993151545524597
1729114734723553800,24.9795537109375,0.09765920788049698,0.06650599837303162,0.007711946498602629
1729114734756886800,25.01288671875,0.09964445978403091,-0.005955760832875967,-0.06375718116760254
1729114734790220000,25.046219970703124,0.08903098851442337,-0.008399149402976036,0.03077143058180809
1729114734823553000,25.079552978515625,0.0949103906750679,0.016798298805952072,-0.012446013279259205
1729114734856886000,25.112885986328124,0.09628479927778244,0.049173206090927124,0.019241688773036003
1729114734890219000,25.146218994140625,0.08307522535324097,0.04619532451033592,0.017027366906404495
1729114734923552000,25.179552001953127,0.08605311065912247,0.009697199799120426,0.019623467698693275
1729114734956885000,25.212885009765625,0.12255123257637024,-0.006719320081174374,-0.012064233422279358
1729114734990218000,25.246218017578126,0.208298921585083,-0.04421006888151169,-0.07024743407964706
1729114735023551000,25.279551025390624,0.3301629424095154,0.004581354558467865,0.036039989441633224
1729114735056884000,25.312884033203126,0.492495596408844,-0.02886253222823143,-0.08261708915233612
1729114735090217200,25.34621728515625,0.6450546979904175,-0.006642963737249374,0.0021379655227065086
1729114735123550200,25.37955029296875,0.8057838678359985,-0.009620844386518002,-0.07421794533729553
1729114735156883200,25.41288330078125,0.9193251132965088,0.01710372418165207,-0.053983625024557114
1729114735190216200,25.44621630859375,1.0669974088668823,-0.04421006888151169,-0.028404397889971733
1729114735223549200,25.479549072265623,1.1652674674987793,-0.005803049076348543,-0.04818057641386986
1729114735256882200,25.512882080078125,1.2562073469161987,-0.00015271181473508477,-0.06917845457792282
1729114735290215200,25.546215087890626,1.3356175422668457,-0.009620844386518002,-0.06200099736452103
1729114735323548200,25.579548095703124,1.4098354578018188,0.016798298805952072,-0.031076854094862938
1729114735356881200,25.612881103515626,1.4602303504943848,0.006261184345930815,-0.07437065243721008
1729114735390214400,25.64621435546875,1.4396905899047852,-0.009697199799120426,-0.04283566400408745
1729114735423547400,25.67954736328125,1.3310362100601196,0.03565821051597595,-0.023441264405846596
1729114735456880400,25.71288037109375,1.2782742977142334,0.025350160896778107,0.016111096367239952
1729114735490213400,25.74621337890625,1.2297883033752441,-0.01695101149380207,-0.0590994730591774
1729114735523546400,25.77954638671875,1.1423606872558594,-0.03268032893538475,0.001985253533348441
1729114735556879400,25.81287939453125,0.964069664478302,-0.06261184066534042,0.031534988433122635
1729114735590212400,25.84621240234375,0.6744517087936401,-0.06688777357339859,0.013591351918876171
1729114735623545300,25.87954541015625,0.4101075828075409,-0.060779303312301636,0.013667707331478596
1729114735656878300,25.91287841796875,0.18256697058677673,-0.030389651656150818,0.07727217674255371
1729114735690211600,25.946211669921876,0.0011453386396169662,-0.004886778071522713,0.033443886786699295
1729114735723544600,25.979544677734374,-0.23983390629291534,-0.038101598620414734,-0.007482878863811493
1729114735756877600,26.012877685546876,-0.4238516390323639,-0.030389651656150818,0.07246175408363342
1729114735790210600,26.04621044921875,-0.572745680809021,-0.000687203137204051,-0.0007635590736754239
1729114735823543600,26.07954345703125,-0.7195017337799072,-0.02176143415272236,0.06849125027656555
1729114735856876500,26.11287646484375,-0.8720608353614807,0.015347537584602833,0.07711946964263916
1729114735890209500,26.14620947265625,-1.0259180068969727,0.00015271181473508477,0.02038702741265297
1729114735923542500,26.17954248046875,-1.1515997648239136,-0.01122431829571724,0.010002624243497849
1729114735956875500,26.21287548828125,-1.2419288158416748,-0.020463382825255394,0.024128466844558716
1729114735990208800,26.246208740234376,-1.259719729423523,-0.016340164467692375,-0.009773556143045425
1729114736023541800,26.279541748046874,-1.2980504035949707,0.08261708915233612,0.008399149402976036
1729114736056874800,26.312874755859376,-1.2710968255996704,0.028557108715176582,-0.0489441379904747
1729114736090207700,26.346207763671874,-1.23368239402771,0.0653606578707695,-0.047646086663007736
1729114736123540700,26.379540771484375,-1.1473238468170166,0.015958385542035103,-0.023059483617544174
1729114736156873700,26.412873779296874,-1.0705862045288086,0.049554985016584396,-0.03306210786104202
1729114736190206700,26.446206787109375,-1.021031141281128,0.05741964280605316,0.006337540224194527
1729114736223539700,26.479539794921877,-0.9877400398254395,-0.0024433890357613564,0.00129805039614439
1729114736256873000,26.512873046875,-0.9565867781639099,0.015194825828075409,0.06047387793660164
1729114736290206000,26.5462060546875,-0.9197068810462952,0.012140588834881783,0.032222192734479904
1729114736323539000,26.5795390625,-0.8820634484291077,-0.010078979656100273,0.05016583204269409
1729114736356872000,26.612871826171876,-0.8632798790931702,-0.028633465990424156,0.05268557742238045
1729114736390205000,26.646204833984374,-0.8582404255867004,-0.016187451779842377,0.03855973482131958
1729114736423538000,26.679537841796876,-0.8252546191215515,-0.044362783432006836,0.05138752609491348
1729114736456871000,26.712870849609374,-0.8072346448898315,-0.010078979656100273,0.040010496973991394
1729114736490204000,26.746203857421875,-0.7777612805366516,-0.07437065243721008,0.03695625811815262
1729114736523537000,26.779536865234373,-0.7057576775550842,0.031229566782712936,0.08819106966257095
1729114736556870100,26.8128701171875,-0.7550835609436035,-0.029855160042643547,-0.09032903611660004
1729114736590203100,26.846203125,-0.7246938943862915,0.0016034740256145597,0.008551862090826035
1729114736623536000,26.8795361328125,-0.7160657048225403,-0.017561858519911766,-0.08139539510011673
1729114736656869000,26.912869140625,-0.6966713070869446,0.02145601063966751,-0.02695363573729992
1729114736690202000,26.9462021484375,-0.6880430579185486,0.0028251686599105597,-0.06413896381855011
1729114736723535000,26.97953515625,-0.6684959530830383,0.019470756873488426,-0.04695888236165047
1729114736756868000,27.0128681640625,-0.6624638438224792,-0.023593975231051445,-0.02214321307837963
1729114736790201000,27.046201171875,-0.6398624777793884,-0.06940752267837524,-0.033443886786699295
1729114736823534000,27.0795341796875,-0.6361210346221924,0.03596363216638565,-0.007330167107284069
1729114736856867300,27.112867431640623,-0.5884749889373779,0.031000498682260513,0.028633465990424156
1729114736890200300,27.146200439453125,-0.5318188667297363,0.05024218559265137,-0.031534988433122635
1729114736923533300,27.179533203125,-0.4659237563610077,0.04871506989002228,0.025197450071573257
1729114736956866300,27.2128662109375,-0.4044572412967682,-0.005726693198084831,-0.04321744292974472
1729114736990199300,27.24619921875,-0.33917292952537537,0.07230904698371887,0.06421531736850739
1729114737023532300,27.2795322265625,-0.26128992438316345,0.047264307737350464,0.02298312820494175
1729114737056865300,27.312865234375,-0.1850867122411728,-0.025197450071573257,0.0051158457063138485
1729114737090198300,27.3461982421875,-0.09323056042194366,-0.01572931744158268,0.06650599837303162
1729114737123531300,27.37953125,0.040544986724853516,-0.04558447748422623,0.01511846948415041
1729114737156864500,27.412864501953123,0.2628933787345886,0.011377030052244663,0.041384901851415634
1729114737190197500,27.446197509765625,0.469741553068161,-0.027259059250354767,0.0016798300202935934
1729114737223530500,27.479530517578127,0.7020925879478455,-0.045202698558568954,-0.04146125912666321
1729114737256863500,27.512863525390625,1.0382112264633179,-0.061771929264068604,-0.0662769302725792
1729114737290196500,27.546196533203126,1.4051777124404907,-0.025350160896778107,-0.037948887795209885
1729114737323529500,27.579529541015624,1.7477103471755981,0.04512634128332138,-0.08780929446220398
1729114737356862500,27.612862548828126,2.084134578704834,-0.027182703837752342,-0.10575293004512787
1729114737390195500,27.646195556640624,2.2320358753204346,0.06948387622833252,-0.0981936976313591
1729114737423528400,27.679528564453125,2.366880416870117,0.03390202298760414,-0.12888877093791962
1729114737456861700,27.71286181640625,2.4298739433288574,0.0393996499478817,-0.08192989230155945
1729114737490194700,27.746194580078125,2.4275834560394287,0.07650861889123917,-0.10132429003715515
1729114737523527700,27.779527587890627,2.363673448562622,0.17424418032169342,-0.09452861547470093
1729114737556860700,27.812860595703125,2.2486050128936768,0.3209238648414612,-0.07246175408363342
1729114737590193700,27.846193603515626,2.108950138092041,0.45019441843032837,-0.10422581434249878
1729114737623526700,27.879526611328124,1.9720439910888672,0.1915769726037979,-0.11178504675626755
1729114737656859600,27.912859619140626,2.116204023361206,-0.1749313771724701,-0.060779303312301636
1729114737690192600,27.946192626953124,1.9531841278076172,-0.09032903611660004,-0.05650337040424347
1729114737723525600,27.979525634765626,1.6999878883361816,-0.05131116881966591,-0.04619532451033592
1729114737756859000,28.01285888671875,1.3200409412384033,-0.04978405311703682,-0.015194825828075409
1729114737790191900,28.04619189453125,0.857782244682312,-0.09422318637371063,-0.02092151902616024
1729114737823524900,28.07952490234375,0.4712686538696289,-0.20516832172870636,-0.023975754156708717
1729114737856857900,28.11285791015625,0.19256959855556488,-0.29839888215065,0.060932014137506485
1729114737890190800,28.14619091796875,0.02664821222424507,-0.497229665517807,-0.03504735976457596
1729114737923523800,28.17952392578125,0.023441264405846596,-0.49440449476242065,0.1784437596797943
1729114737956856800,28.21285693359375,0.09636115282773972,-0.1149156391620636,0.00022906772210262716
1729114737990189800,28.24618994140625,-0.047951508313417435,0.07589777559041977,-0.01626380905508995
1729114738023522800,28.279522705078126,-0.09384141117334366,0.08322793990373611,-0.02229592576622963
1729114738056856000,28.31285595703125,-0.11659546941518784,-0.005803049076348543,-0.06398624926805496
1729114738090189000,28.34618896484375,-0.11002886295318604,0.013285927474498749,0.0198525357991457
1729114738123522000,28.37952197265625,-0.12789614498615265,0.021226942539215088,-0.055739812552928925
1729114738156855000,28.41285498046875,-0.11216682940721512,-0.0009926267666742206,-0.06085565686225891
1729114738190188000,28.44618798828125,-0.06016845628619194,0.021532366052269936,0.03290939703583717
1729114738223521000,28.47952099609375,-0.07841751724481583,-0.0064902519807219505,-0.038483377546072006
1729114738256854000,28.51285400390625,-0.07475243508815765,0.03817795217037201,-0.0420721061527729
1729114738290187000,28.54618701171875,-0.06757497787475586,0.053143709897994995,-0.011606098152697086
1729114738323520000,28.57952001953125,-0.05482354015111923,0.03214583545923233,-0.08811471611261368
1729114738356853200,28.612853271484376,-0.05825955793261528,0.012751436792314053,0.03779617324471474
1729114738390186200,28.646186279296874,-0.049020491540431976,-0.005726693198084831,-0.002061609411612153
1729114738423519200,28.679519287109375,-0.03596363216638565,-0.016187451779842377,0.03023693896830082
1729114738456852200,28.712852294921873,-0.04291202127933502,-0.00030542362947016954,0.0492495596408844
1729114738490185200,28.746185302734375,-0.041919391602277756,0.031382277607917786,-0.0038177953101694584
1729114738523518200,28.779518310546877,-0.038483377546072006,0.01763821393251419,0.06581879407167435
1729114738556851200,28.812851318359375,-0.05184566229581833,0.04558447748422623,0.005803049076348543
1729114738590184200,28.84618408203125,-0.07803573459386826,0.02802261710166931,0.0555107444524765
1729114738623517400,28.879517333984374,-0.14614520967006683,0.01916533336043358,0.08200624585151672
1729114738656850400,28.912850341796876,-0.25655585527420044,-0.015576604753732681,0.020692450925707817
1729114738690183400,28.946183349609374,-0.34100547432899475,0.04107947647571564,0.06337540596723557
1729114738723516400,28.979516357421875,-0.4423297643661499,0.008704573847353458,0.014660334214568138
1729114738756849400,29.012849365234374,-0.5282301902770996,-0.02817532978951931,-0.05497625470161438
1729114738790182400,29.046182373046875,-0.6303179860115051,-0.03695625811815262,0.044668205082416534
1729114738823515400,29.079515380859377,-0.6671979427337646,-0.016492875292897224,-0.02405211143195629
1729114738856848400,29.112848388671875,-0.7214106321334839,-0.01710372418165207,-0.000687203137204051
1729114738890181400,29.146181396484376,-0.7786775231361389,-0.03565821051597595,0.002672456670552492
1729114738923514600,29.1795146484375,-0.8644252419471741,-0.0031305921729654074,0.0028251686599105597
1729114738956847600,29.21284765625,-0.9672766327857971,0.022677704691886902,0.009009997360408306
1729114738990180600,29.2461806640625,-1.0482902526855469,-0.03771981969475746,0.023975754156708717
1729114739023513600,29.279513671875,-1.106473445892334,-0.015958385542035103,-0.0021379655227065086
1729114739056846600,29.3128466796875,-1.1863417625427246,-0.02420482225716114,0.031076854094862938
1729114739090179600,29.3461796875,-1.2862153053283691,-0.045737188309431076,0.051082100719213486
1729114739123512600,29.3795126953125,-1.395862340927124,-0.03886515647172928,0.029778804630041122
1729114739156845600,29.412845458984375,-1.4655753374099731,0.03680354729294777,0.0012216945178806782
1729114739190178600,29.446178466796876,-1.4964994192123413,0.051082100719213486,0.06581879407167435
1729114739223511800,29.47951171875,-1.526201844215393,-0.015576604753732681,-0.04443913698196411
1729114739256844800,29.5128447265625,-1.5066547393798828,-0.00015271181473508477,0.0050394898280501366
1729114739290177800,29.546177734375,-1.4685531854629517,-0.036039989441633224,-0.05238015204668045
1729114739323510800,29.5795107421875,-1.4202961921691895,0.002672456670552492,0.002672456670552492
1729114739356843800,29.61284375,-1.3676869869232178,0.0364217683672905,-0.022754060104489326
1729114739390176800,29.6461767578125,-1.3209571838378906,0.024586603045463562,-0.006948387715965509
1729114739423509800,29.679509765625,-1.2455939054489136,-0.017332790419459343,0.028098974376916885
1729114739456842800,29.7128427734375,-1.081581473350525,-0.037567105144262314,0.008704573847353458
1729114739490175700,29.74617578125,-0.773867130279541,-0.031229566782712936,0.05077667906880379
1729114739523509000,29.779509033203126,-0.4626404345035553,-0.009315420873463154,-0.014431266114115715
1729114739556842000,29.812842041015625,-0.20898611843585968,0.08628217875957489,0.07085828483104706
1729114739590175000,29.846175048828126,-0.1083490327000618,0.06986565887928009,-0.0358109213411808
1729114739623508000,29.879508056640624,-0.08422056585550308,0.08299887180328369,0.007406522985547781
1729114739656841000,29.912841064453126,-0.06704048812389374,0.0364217683672905,-0.01916533336043358
1729114739690174000,29.946174072265624,-0.050929389894008636,0.02764083817601204,0.015652960166335106
1729114739723507000,29.9795068359375,-0.032603971660137177,0.003359660040587187,0.008551862090826035
1729114739756840000,30.01283984375,-0.0293970238417387,0.004963133949786425,0.025121092796325684
1729114739790173000,30.0461728515625,-0.028938889503479004,-0.002748812548816204,-0.008551862090826035
1729114739823506200,30.079506103515627,-0.01885990984737873,0.012140588834881783,0.013591351918876171
1729114739856839200,30.112839111328125,-0.015652960166335106,0.00786465872079134,-0.008933641016483307
1729114739890172200,30.146172119140626,-0.0164165198802948,0.0023670331574976444,0.0038941511884331703
1729114739923505200,30.179505126953124,-0.040392275899648666,-0.0068720318377017975,0.011835165321826935
1729114739956838100,30.212838134765626,-0.0130568603053689,-0.021837789565324783,0.012293301522731781
1729114739990171100,30.246171142578124,0.008246437646448612,-0.015271181240677834,0.014736690558493137
1729114740023504100,30.279504150390625,0.007635590620338917,-0.015500249341130257,0.00992626789957285
1729114740056837000,30.312837158203124,-0.0014507622690871358,-0.03061871975660324,0.017027366906404495
1729114740090170000,30.346170166015625,-0.00007635590736754239,-0.04879142343997955,0.022906772792339325
1729114740123503400,30.37950341796875,-0.006337540224194527,-0.04978405311703682,0.01748550310730934
1729114740156836400,30.41283642578125,-0.007101099472492933,-0.01748550310730934,0.007406522985547781
1729114740190169300,30.44616943359375,0.0023670331574976444,0.007177455350756645,-0.0025197449140250683
1729114740223502300,30.47950244140625,-0.008780929259955883,-0.0012216945178806782,0.0025197449140250683
1729114740256835300,30.51283544921875,-0.010002624243497849,-0.004428642801940441,0.0006108472589403391
1729114740290168300,30.546168212890624,0.0032069480512291193,0.0051158457063138485,-0.002061609411612153
1729114740323501300,30.579501220703126,-0.0009162708884105086,-0.0006108472589403391,-0.0009926267666742206
1729114740356834300,30.612834228515624,-0.0030542362947016954,0.0016034740256145597,-0.0015271181473508477
1729114740390167300,30.646167236328125,0.0017561858985573053,0.0035887276753783226,-0.0019088976550847292
1729114740423500500,30.67950048828125,-0.00129805039614439,0.00007635590736754239,-0.0008399150101467967
1729114740456833500,30.71283349609375,-0.0019088976550847292,0.0012216945178806782,-0.0009926267666742206
1729114740490166500,30.74616650390625,-0.00038177953683771193,0.0014507622690871358,-0.0004581354442052543
1729114740523499500,30.77949951171875,-0.0025197449140250683,0,-0.00007635590736754239
1729114740556832500,30.81283251953125,-0.0009926267666742206,0.0010689827613532543,-0.00007635590736754239
1729114740590165500,30.84616552734375,-0.00129805039614439,0.0008399150101467967,-0.00007635590736754239
1729114740623498500,30.87949853515625,-0.0011453386396169662,-0.00007635590736754239,0.00038177953683771193
1729114740656831500,30.91283154296875,-0.000687203137204051,0.0005344913806766272,-0.00007635590736754239
1729114740690164500,30.94616455078125,-0.000687203137204051,-0.0005344913806766272,-0.00007635590736754239
1729114740723497700,30.979497802734375,-0.00007635590736754239,-0.00007635590736754239,0.00030542362947016954
1729114740756830700,31.012830810546873,0.0005344913806766272,-0.00007635590736754239,-0.00007635590736754239
1729114740790163700,31.046163818359375,-0.00007635590736754239,0,-0.00007635590736754239
1729114740823496700,31.07949658203125,-0.00007635590736754239,0.00007635590736754239,0.0004581354442052543
1729114740856829700,31.11282958984375,-0.00007635590736754239,-0.00007635590736754239,-0.00007635590736754239
1729114740890162700,31.14616259765625,-0.00007635590736754239,-0.00007635590736754239,-0.000687203137204051
1729114740923495700,31.17949560546875,-0.00015271181473508477,0.0005344913806766272,-0.0006108472589403391
1729114740956828700,31.21282861328125,-0.00015271181473508477,0,-0.0006108472589403391
1729114740990162000,31.246161865234374,-0.00007635590736754239,-0.00007635590736754239,-0.00030542362947016954
1729114741023495000,31.279494873046875,0.00030542362947016954,-0.00007635590736754239,-0.0004581354442052543
1729114741056828000,31.312827880859373,-0.00007635590736754239,-0.0004581354442052543,-0.000687203137204051
1729114741090161000,31.346160888671875,-0.005573981441557407,0.0016798300202935934,-0.00007635590736754239
1729114741123494000,31.379493896484377,-0.03733803704380989,0.0028251686599105597,0.0011453386396169662
1729114741156827000,31.412826904296875,-0.08299887180328369,0.015042114071547985,-0.01038440316915512
1729114741190160000,31.446159912109376,-0.16905197501182556,-0.010613471269607544,0.007177455350756645
1729114741223492900,31.479492919921874,-0.3522298038005829,-0.000687203137204051,0.002672456670552492
1729114741256825900,31.512825927734376,-0.5870242118835449,0.021150587126612663,-0.002748812548816204
1729114741290159000,31.5461591796875,-0.8940513134002686,-0.0017561858985573053,0.009849912486970425
1729114741323492000,31.5794921875,-1.212226390838623,-0.033596597611904144,0.027717193588614464
1729114741356825000,31.6128251953125,-1.5019207000732422,-0.010155336000025272,0.017180079594254494
1729114741390158000,31.646157958984375,-1.7173970937728882,0.0016798300202935934,0.01901262067258358
1729114741423491000,31.679490966796877,-1.831014633178711,-0.006948387715965509,0.015423892997205257
1729114741456824000,31.712823974609375,-1.8775917291641235,0.00259610079228878,0.01175880990922451
1729114741490157000,31.746156982421876,-1.853157877922058,-0.018096350133419037,0.03268032893538475
1729114741523490000,31.779489990234374,-1.7855829000473022,0.0067956759594380856,0.01038440316915512
1729114741556823000,31.812822998046876,-1.6961700916290283,-0.017714571207761765,0.026495499536395073
1729114741590156300,31.84615625,-1.6033213138580322,0.013896775431931019,0.0022906772792339325
1729114741623489300,31.8794892578125,-1.5211623907089233,0,0.013209572061896324
1729114741656822300,31.912822265625,-1.4719128608703613,0.004123218823224306,0.008093725889921188
1729114741690155300,31.9461552734375,-1.4556490182876587,-0.002061609411612153,0.01046075951308012
1729114741723488300,31.97948828125,-1.474967122077942,0.004581354558467865,0.007788302376866341
1729114741756821200,32.0128212890625,-1.4948196411132812,0.021226942539215088,0.0034360159188508987
1729114741790154200,32.046154296875,-1.5161992311477661,-0.010231691412627697,0.015958385542035103
1729114741823487200,32.0794873046875,-1.559187650680542,0.017714571207761765,0.0025197449140250683
1729114741856820200,32.1128203125,-1.6075209379196167,-0.0010689827613532543,0.014431266114115715
1729114741890153500,32.14615356445312,-1.6394376754760742,0.007101099472492933,0.009544488042593002
1729114741923486500,32.179486572265624,-1.6692928075790405,0.00916270911693573,0.0050394898280501366
1729114741956819500,32.2128193359375,-1.6955592632293701,-0.001374406274408102,0.015271181240677834
1729114741990152400,32.24615234375,-1.7205276489257812,0.011987877078354359,0.014431266114115715
1729114742023485400,32.2794853515625,-1.7377841472625732,0.008780929259955883,0.00908635277301073
1729114742056818400,32.312818359375,-1.7476340532302856,0.01710372418165207,0.008399149402976036
1729114742090151400,32.3461513671875,-1.7393112182617188,0.005421269219368696,0.012446013279259205
1729114742123484400,32.379484375,-1.7268651723861694,0.020845163613557816,0.009468132629990578
1729114742156817400,32.4128173828125,-1.7074707746505737,0.004123218823224306,0.020692450925707817
1729114742190150700,32.44615063476562,-1.7005224227905273,0.02817532978951931,0.010613471269607544
1729114742223483600,32.479483642578124,-1.6858620643615723,0.0011453386396169662,0.021990500390529633
1729114742256816600,32.512816650390626,-1.7059437036514282,0.013438640162348747,0.01382041908800602
1729114742290149600,32.54614965820313,-1.7222838401794434,0.00022906772210262716,0.025884652510285378
1729114742323482600,32.57948266601562,-1.741678237915039,0.017867282032966614,0.01847812905907631
1729114742356815600,32.61281567382812,-1.7512991428375244,-0.0014507622690871358,0.023364907130599022
1729114742390148600,32.646148681640625,-1.7708462476730347,0.005344913341104984,0.018783552572131157
1729114742423481600,32.67948168945313,-1.7708462476730347,-0.0004581354442052543,0.020005248486995697
1729114742456814600,32.71281469726563,-1.763439655303955,0.008399149402976036,0.014278554357588291
1729114742490147800,32.74614794921875,-1.7510700225830078,0.006337540224194527,0.02008160389959812
1729114742523480800,32.779480712890624,-1.7309120893478394,-0.0016034740256145597,0.0231358390301466
1729114742556813800,32.812813720703126,-1.7130447626113892,0.004734066314995289,0.023593975231051445
1729114742590146800,32.84614672851563,-1.689298152923584,0.01511846948415041,0.015271181240677834
1729114742623479800,32.87947973632812,-1.6757831573486328,0.0012216945178806782,0.019241688773036003
1729114742656812800,32.91281274414062,-1.681815266609192,0.012827792204916477,0.019470756873488426
1729114742690145800,32.946145751953125,-1.6890690326690674,0.005803049076348543,0.022066857665777206
1729114742723478800,32.97947875976563,-1.6944903135299683,-0.0035887276753783226,0.029778804630041122
1729114742756811800,33.01281176757813,-1.6470732688903809,0.0009162708884105086,0.02504473738372326
1729114742790145000,33.04614501953125,-1.478097677230835,-0.007559234742075205,0.025197450071573257
1729114742823478000,33.07947802734375,-1.1047172546386719,-0.0032833039294928312,0.017332790419459343
1729114742856811000,33.11281103515625,-0.6496360301971436,0.010155336000025272,0.010155336000025272
1729114742890144000,33.14614404296875,-0.20394663512706757,0.01038440316915512,-0.00259610079228878
1729114742923477000,33.17947705078125,0.06436803191900253,0.002672456670552492,0.004199574701488018
1729114742956810000,33.21281005859375,0.06352811306715012,0.005573981441557407,-0.008322793990373611
1729114742990143000,33.24614306640625,-0.030695075169205666,0.005650337319821119,0.0031305921729654074
1729114743023476000,33.27947607421875,-0.010231691412627697,-0.004810422193259001,-0.0022906772792339325
1729114743056809000,33.31280908203125,0.02038702741265297,0.0019088976550847292,0.00022906772210262716
1729114743090142200,33.34614208984375,-0.00916270911693573,-0.00007635590736754239,-0.0008399150101467967
1729114743123475200,33.37947509765625,-0.0023670331574976444,-0.0008399150101467967,-0.00007635590736754239
1729114743156808200,33.41280810546875,0.0065666078589856625,0.0014507622690871358,0.0009926267666742206
1729114743190141200,33.44614111328125,-0.005726693198084831,-0.0015271181473508477,0.00007635590736754239
1729114743223474200,33.47947412109375,0.002672456670552492,0.0011453386396169662,0.00015271181473508477
1729114743256807200,33.51280712890625,-0.0005344913806766272,-0.0007635590736754239,0
1729114743290140200,33.54614013671875,-0.0004581354442052543,0.00038177953683771193,0.0005344913806766272
1729114743323473200,33.57947314453125,0.001374406274408102,0.00038177953683771193,0.00015271181473508477
1729114743356806100,33.61280615234375,-0.000687203137204051,-0.0005344913806766272,-0.00038177953683771193
1729114743390139400,33.646139404296875,0.0005344913806766272,0.0004581354442052543,-0.00007635590736754239
1729114743423472400,33.67947241210938,0.0005344913806766272,-0.0006108472589403391,-0.00007635590736754239
1729114743456805400,33.71280541992188,0.00030542362947016954,-0.00007635590736754239,-0.00007635590736754239
1729114743490138400,33.74613842773437,0.0005344913806766272,-0.00007635590736754239,0.00022906772210262716
1729114743523471400,33.779471435546874,-0.00007635590736754239,-0.00007635590736754239,-0.00007635590736754239
1729114743556804400,33.812804443359376,-0.00007635590736754239,-0.00007635590736754239,-0.00007635590736754239
1729114743590137300,33.84613745117188,-0.00007635590736754239,-0.00022906772210262716,-0.00007635590736754239
1729114743623470300,33.87947021484375,0.0008399150101467967,-0.0006108472589403391,0.0016798300202935934
1729114743656803600,33.91280346679687,0.0022906772792339325,-0.0031305921729654074,0.0022143214009702206
1729114743690136600,33.946136474609375,0.013744063675403595,-0.0019088976550847292,0.0024433890357613564
1729114743723469600,33.97946948242188,0.024510245770215988,-0.004123218823224306,0.009239064529538155
1729114743756802600,34.01280249023438,0.016492875292897224,-0.0025197449140250683,0.010078979656100273
1729114743790135600,34.04613549804687,0.014125842601060867,-0.0028251686599105597,0.011529741808772087
1729114743823468500,34.079468505859374,0.05199837312102318,0.0012216945178806782,0.009620844386518002
1729114743856801500,34.112801513671876,0.07498150318861008,-0.009468132629990578,0.011147962883114815
1729114743890134500,34.14613452148438,0.08658760040998459,0.004046862944960594,0.017409147694706917
1729114743923467500,34.17946752929687,0.08559497445821762,-0.004352286923676729,0.006948387715965509
1729114743956800800,34.21280078125,0.08215895295143127,-0.018936265259981155,0.024662958458065987
1729114743990133800,34.2461337890625,0.12064233422279358,-0.00129805039614439,0.026190076023340225
1729114744023466800,34.279466796875,0.14270919561386108,-0.035505495965480804,0.018783552572131157
1729114744056799700,34.3127998046875,0.16676130890846252,-0.015347537584602833,0.018936265259981155
1729114744090132700,34.3461328125,0.21509459614753723,0.0006108472589403391,0.0034360159188508987
1729114744123465700,34.3794658203125,0.28572380542755127,0.011377030052244663,-0.003359660040587187
1729114744156798700,34.412798828125,0.3303920030593872,0.022601349279284477,0.03894151374697685
1729114744190131700,34.44613159179688,0.35894912481307983,0.013896775431931019,-0.019088976085186005
1729114744223464700,34.47946459960937,0.4091913104057312,-0.013209572061896324,-0.04993676394224167
1729114744256798000,34.5127978515625,0.43973368406295776,0.02214321307837963,0.03955236077308655
1729114744290131000,34.546130859375,0.4796678125858307,0.009697199799120426,-0.03955236077308655
1729114744323464000,34.5794638671875,0.5315134525299072,0.02053973823785782,-0.05795413255691528
1729114744356797000,34.612796875,0.5796176791191101,0.008780929259955883,-0.03962871432304382
1729114744390130000,34.6461298828125,0.6103127598762512,-0.01382041908800602,-0.03023693896830082
1729114744423463000,34.679462890625,0.6014555096626282,-0.015042114071547985,-0.015423892997205257
1729114744456796000,34.7127958984375,0.5473191738128662,0.00007635590736754239,-0.03008422814309597
1729114744490129000,34.74612890625,0.49768781661987305,-0.0014507622690871358,0.007024743594229221
1729114744523462000,34.7794619140625,0.4088858962059021,0.02764083817601204,-0.01885990984737873
1729114744556795100,34.812795166015626,0.3259633779525757,-0.04367557913064957,-0.018249060958623886
1729114744590128000,34.84612817382813,0.2670929729938507,-0.005879404954612255,0.03703261539340019
1729114744623461000,34.87946118164062,0.19119518995285034,-0.0004581354442052543,-0.06055023521184921
1729114744656794000,34.91279418945312,0.10644013434648514,0.01038440316915512,0.02229592576622963
1729114744690127000,34.946127197265625,0.010078979656100273,-0.06742226332426071,-0.02298312820494175
1729114744723460000,34.97946020507813,-0.07627955079078674,-0.05474718660116196,0.014507622458040714
1729114744756793000,35.01279296875,-0.1355317384004593,0.005726693198084831,-0.02244863659143448
1729114744790126000,35.0461259765625,-0.23693238198757172,-0.005955760832875967,0.0817771777510643
1729114744823459000,35.079458984375,-0.24754585325717926,0.0030542362947016954,0.0462716780602932
1729114744856792300,35.112792236328126,-0.25289076566696167,-0.05131116881966591,0
1729114744890125300,35.14612524414063,-0.3071798086166382,-0.02695363573729992,0.060092099010944366
1729114744923458300,35.17945825195312,-0.3319191336631775,0.05131116881966591,0.007482878863811493
1729114744956791300,35.21279125976562,-0.433625191450119,0.0067956759594380856,0.06543701142072678
1729114744990124300,35.246124267578125,-0.5474718809127808,-0.023975754156708717,0.04199574887752533
1729114745023457300,35.27945727539063,-0.6668924689292908,-0.03588727489113808,0.03542914241552353
1729114745056790300,35.31279028320313,-0.7689803242683411,0.01817270554602146,0.032756682485342026
1729114745090123300,35.34612329101562,-0.863508939743042,-0.009391776286065578,0.07734853774309158
1729114745123456300,35.379456298828124,-0.9325346946716309,-0.03458922728896141,0.033443886786699295
1729114745156789500,35.41278955078125,-1.0086615085601807,-0.041919391602277756,0.04993676394224167
1729114745190122500,35.44612255859375,-1.0552386045455933,-0.022372281178832054,-0.01511846948415041
1729114745223455500,35.47945556640625,-1.1266313791275024,0.04772244393825531,0.08307522535324097
1729114745256788500,35.51278857421875,-1.1505308151245117,0.0032833039294928312,-0.023059483617544174
1729114745290121500,35.54612158203125,-1.1417498588562012,0.007253811229020357,0.025961007922887802
1729114745323454500,35.57945434570313,-1.1321290731430054,-0.03306210786104202,-0.1053711548447609
1729114745356787500,35.61278735351563,-1.077839970588684,0.04161396995186806,0.008246437646448612
1729114745390120400,35.64612036132812,-1.0184351205825806,0.053678203374147415,-0.06284090876579285
1729114745423453400,35.679453369140624,-0.9621607661247253,0.03405473381280899,-0.05512896552681923
1729114745456786700,35.71278662109375,-0.9007706642150879,0.023975754156708717,-0.05276193097233772
1729114745490119700,35.74611962890625,-0.8615236878395081,0.00519220158457756,-0.053830914199352264
1729114745523452700,35.77945263671875,-0.8195279240608215,-0.026190076023340225,0.025961007922887802
1729114745556785700,35.81278564453125,-0.8196043372154236,0.010155336000025272,-0.012675080448389053
1729114745590118700,35.84611865234375,-0.7559998631477356,-0.02641914412379265,-0.008170082233846188
1729114745623451600,35.87945166015625,-0.6360446810722351,-0.021150587126612663,-0.016645587980747223
1729114745656784600,35.91278466796875,-0.4736357033252716,-0.024281177669763565,0.03008422814309597
1729114745690117600,35.94611767578125,-0.34253260493278503,0.009391776286065578,0.02664821222424507
1729114745723450600,35.97945068359375,-0.22105035185813904,0.002748812548816204,0.02008160389959812
1729114745756783900,36.01278393554688,-0.15805672109127045,-0.025121092796325684,0.0004581354442052543
1729114745790116900,36.04611694335937,-0.12354385852813721,-0.018554486334323883,0.0787992998957634
1729114745823449900,36.079449951171874,-0.05741964280605316,0.005879404954612255,0.07872293889522552
1729114745856782800,36.112782958984376,-0.07238540053367615,-0.01779092662036419,0.008170082233846188
1729114745890115800,36.14611572265625,-0.07307260483503342,0.08651123940944672,0.013362283818423748
1729114745923448800,36.17944873046875,-0.05986303091049194,0.03718532621860504,-0.018096350133419037
1729114745956781800,36.21278173828125,-0.06650599837303162,-0.013514995574951172,0.013667707331478596
1729114745990114800,36.24611474609375,0.009239064529538155,-0.03802524134516716,-0.002748812548816204
1729114746023448000,36.27944799804688,0.09681928902864456,-0.03978142887353897,-0.06413896381855011
1729114746056781000,36.31278100585938,0.21593450009822845,0.03527642786502838,-0.03504735976457596
1729114746090114000,36.34611401367187,0.3118375241756439,-0.000687203137204051,-0.017867282032966614
1729114746123447000,36.379447021484374,0.3978906273841858,0.006261184345930815,-0.08299887180328369
1729114746156780000,36.412780029296876,0.4514924883842468,0.10216420143842697,0.00519220158457756
1729114746190113000,36.44611303710938,0.5212054252624512,0.05673243850469589,-0.09506310522556305
1729114746223446000,36.47944604492187,0.5982485413551331,0.0689493864774704,-0.024662958458065987
1729114746256779000,36.51277905273437,0.7221741676330566,0.028938889503479004,0.02710634656250477
1729114746290112000,36.546112060546875,0.7464553713798523,0.057114217430353165,-0.06681142002344131
1729114746323445200,36.5794453125,0.8683957457542419,0.09827005118131638,-0.03695625811815262
1729114746356778200,36.6127783203125,0.9074136018753052,-0.00015271181473508477,-0.007101099472492933
1729114746390111200,36.646111328125,1.0163735151290894,-0.006337540224194527,-0.006948387715965509
1729114746423444200,36.6794443359375,1.0840247869491577,-0.025731941685080528,0.009544488042593002
1729114746456777200,36.712777099609376,1.1780953407287598,-0.012827792204916477,0.044362783432006836
1729114746490110200,36.74611010742188,1.2596434354782104,-0.02870982140302658,-0.036574479192495346
1729114746523443200,36.77944311523437,1.309122085571289,-0.023975754156708717,-0.009620844386518002
1729114746556776200,36.81277612304687,1.3479108810424805,0.004123218823224306,-0.021685076877474785
1729114746590109200,36.846109130859375,1.3663126230239868,-0.03306210786104202,-0.019928891211748123
1729114746623442400,36.8794423828125,1.3630293607711792,-0.027564482763409615,-0.0719272643327713
1729114746656775400,36.912775390625,1.3093510866165161,-0.05543438717722893,-0.09857547283172607
1729114746690108400,36.9461083984375,1.2699514627456665,-0.04459185153245926,-0.03718532621860504
1729114746723441400,36.97944140625,1.1980241537094116,0.04337015375494957,-0.09071081876754761
1729114746756774400,37.0127744140625,1.1156361103057861,-0.047264307737350464,-0.0778830274939537
1729114746790107400,37.046107421875,1.1089168787002563,-0.0361163429915905,-0.038483377546072006
1729114746823440400,37.0794404296875,1.0902096033096313,-0.03405473381280899,-0.03565821051597595
1729114746856773400,37.1127734375,1.0727241039276123,-0.06169557198882103,-0.03184041380882263
1729114746890106400,37.1461064453125,1.0618816614151,-0.06184828653931618,0.0038941511884331703
1729114746923439600,37.17943969726562,1.046915888786316,-0.04489727318286896,-0.023593975231051445
1729114746956772600,37.21277270507812,1.0547804832458496,-0.0293970238417387,-0.03504735976457596
1729114746990105600,37.246105712890625,1.0069817304611206,-0.0590994730591774,0.03978142887353897
1729114747023438600,37.2794384765625,0.9030613303184509,-0.017180079594254494,0.00129805039614439
1729114747056771600,37.312771484375,0.7808918356895447,-0.024586603045463562,-0.015347537584602833
1729114747090104600,37.3461044921875,0.6310052275657654,0.00519220158457756,0.015576604753732681
1729114747123437600,37.3794375,0.4637857675552368,0.01832541823387146,-0.005879404954612255
1729114747156770600,37.4127705078125,0.3142809271812439,-0.018554486334323883,0.07154548168182373
1729114747190103600,37.446103515625,0.22700610756874084,0.009239064529538155,-0.0032833039294928312
1729114747223436800,37.47943676757812,0.17088451981544495,0.004199574701488018,0.041766680777072906
1729114747256769800,37.51276977539062,0.16378341615200043,0.01038440316915512,-0.013438640162348747
1729114747290102800,37.546102783203125,0.09048175066709518,0.026190076023340225,0.04886778071522713
1729114747323435800,37.57943579101563,0.03665083646774292,0.0164165198802948,0.04023956134915352
1729114747356768800,37.61276879882813,-0.05482354015111923,0.006948387715965509,0.06994201242923737
1729114747390101800,37.64610180664062,-0.17684027552604675,-0.08971819281578064,0.03229855000972748
1729114747423434800,37.679434814453124,-0.336347758769989,-0.033978380262851715,0.08170082420110703
1729114747456767700,37.712767822265626,-0.4534013867378235,-0.034131091088056564,0.01435491070151329
1729114747490100700,37.74610083007813,-0.5319716334342957,0.0034360159188508987,-0.01969982497394085
1729114747523434000,37.77943408203125,-0.5996993184089661,0.0015271181473508477,0.02160872146487236
1729114747556767000,37.81276708984375,-0.6621584296226501,0.03306210786104202,-0.014431266114115715
1729114747590100000,37.846099853515625,-0.726908266544342,-0.030847785994410515,-0.03008422814309597
1729114747623433000,37.87943286132813,-0.7605811953544617,-0.04008685052394867,0.006413896102458239
1729114747656766000,37.91276586914063,-0.8350282311439514,-0.043981000781059265,-0.05948125198483467
1729114747690099000,37.94609887695312,-0.8808417320251465,0.0065666078589856625,0.0008399150101467967
1729114747723432000,37.979431884765624,-0.9694145917892456,-0.00519220158457756,-0.057114217430353165
1729114747756765000,38.012764892578126,-1.0595145225524902,-0.008322793990373611,-0.009697199799120426
1729114747790098000,38.04609790039063,-1.1987113952636719,0.00908635277301073,-0.10560022294521332
1729114747823431200,38.07943115234375,-1.306220531463623,-0.0725381150841713,-0.00786465872079134
1729114747856764200,38.11276416015625,-1.4654226303100586,0.009315420873463154,-0.05077667906880379
1729114747890097200,38.14609716796875,-1.5300960540771484,0.0030542362947016954,-0.02886253222823143
1729114747923430100,38.17943017578125,-1.5931659936904907,-0.0010689827613532543,-0.014049487188458443
1729114747956763100,38.21276318359375,-1.6276025772094727,-0.08154810965061188,0.011147962883114815
1729114747990096100,38.24609619140625,-1.56483793258667,-0.09368869662284851,0.030007870867848396
1729114748023429000,38.27942919921875,-1.5229185819625854,-0.04749337583780289,0.02008160389959812
1729114748056762000,38.31276220703125,-1.4851224422454834,-0.012827792204916477,0.05413633957505226
1729114748090095000,38.34609521484375,-1.4601540565490723,-0.0489441379904747,-0.0010689827613532543
1729114748123428400,38.379428466796874,-1.3943352699279785,-0.025502873584628105,0.02145601063966751
1729114748156761300,38.41276123046875,-1.3406569957733154,-0.0036650835536420345,0.011606098152697086
1729114748190094300,38.44609423828125,-1.2896512746810913,0.014278554357588291,-0.0844496339559555
1729114748223427300,38.47942724609375,-1.2723948955535889,0.08490777015686035,0.05841226875782013
1729114748256760300,38.51276025390625,-1.1989405155181885,0.01779092662036419,-0.06642963737249374
1729114748290093300,38.54609326171875,-1.0476794242858887,0.028938889503479004,0.002672456670552492
1729114748323426300,38.57942626953125,-0.835180938243866,0.023593975231051445,-0.05657972767949104
1729114748356759300,38.61275927734375,-0.5633538961410522,0.054365407675504684,0.02993151545524597
1729114748390092500,38.64609252929687,-0.35177165269851685,0.08299887180328369,-0.04291202127933502
1729114748423425500,38.679425537109374,-0.21326205134391785,0.21081866323947906,0.004734066314995289
1729114748456758500,38.712758544921876,-0.1346154659986496,0.33924928307533264,0.024433890357613564
1729114748490091500,38.74609155273438,-0.12354385852813721,0.18081079423427582,-0.038101598620414734
1729114748523424500,38.77942456054687,-0.05421269312500954,-0.059557609260082245,-0.01779092662036419
1729114748556757500,38.81275756835937,-0.03886515647172928,-0.06688777357339859,0.06696412712335587
1729114748590090500,38.846090576171875,-0.03787253051996231,-0.06062658876180649,0.0492495596408844
1729114748623423500,38.87942358398438,-0.039476003497838974,0.0009926267666742206,0.06726955622434616
1729114748656756500,38.91275659179688,-0.041384901851415634,0.028938889503479004,0.051082100719213486
1729114748690089700,38.94608984375,-0.031916771084070206,0.017409147694706917,-0.004046862944960594
1729114748723422700,38.979422607421874,-0.01748550310730934,0.06276455521583557,0.012751436792314053
1729114748756755700,39.012755615234376,-0.018019994720816612,0.0594048947095871,-0.051082100719213486
1729114748790088700,39.04608862304688,-0.012675080448389053,0.05390727147459984,-0.025731941685080528
1729114748823421700,39.07942163085937,0.00022906772210262716,0.005726693198084831,0.014202198944985867
1729114748856754700,39.11275463867187,-0.007482878863811493,-0.0025197449140250683,-0.009239064529538155
1729114748890087700,39.146087646484375,-0.007559234742075205,0.026342788711190224,-0.0025197449140250683
1729114748923420700,39.17942065429688,0.0022906772792339325,0.036574479192495346,-0.01710372418165207
1729114748956753700,39.21275366210938,-0.011147962883114815,0.022219568490982056,-0.00519220158457756
1729114748990087000,39.2460869140625,0.006032116711139679,-0.004046862944960594,0.0038941511884331703
1729114749023420000,39.279419921875,0.007559234742075205,-0.0035887276753783226,0.0064902519807219505
1729114749056753000,39.3127529296875,-0.004886778071522713,-0.0036650835536420345,0.005421269219368696
1729114749090086000,39.3460859375,0.007711946498602629,-0.018019994720816612,0.01122431829571724
1729114749123419000,39.3794189453125,-0.00015271181473508477,-0.027029991149902344,0.017561858519911766
1729114749156752000,39.412751953125,-0.0031305921729654074,-0.04283566400408745,0.023746687918901443
1729114749190084900,39.4460849609375,0.0022143214009702206,-0.05948125198483467,0.030847785994410515
1729114749223417900,39.47941796875,-0.0009926267666742206,-0.06963659077882767,0.032603971660137177
1729114749256750800,39.51275073242188,-0.0029015245381742716,-0.072232685983181,0.03245126083493233
1729114749290084000,39.546083984375,0.003359660040587187,-0.04749337583780289,0.01763821393251419
1729114749323417000,39.5794169921875,0.0024433890357613564,0.005955760832875967,0.0019088976550847292
1729114749356750000,39.61275,0.000687203137204051,0.009239064529538155,-0.004352286923676729
1729114749390083000,39.6460830078125,-0.0019088976550847292,-0.007024743594229221,0.0023670331574976444
1729114749423416000,39.679416015625,-0.00022906772210262716,0.0016798300202935934,-0.0005344913806766272
1729114749456749000,39.7127490234375,-0.00007635590736754239,0.004199574701488018,-0.0036650835536420345
1729114749490082000,39.74608203125,-0.002061609411612153,-0.0016034740256145597,0.00007635590736754239
1729114749523415000,39.7794150390625,0.0017561858985573053,0.002748812548816204,-0.0016034740256145597
1729114749556748000,39.812748046875,-0.0006108472589403391,0.0022906772792339325,-0.0009162708884105086
1729114749590081300,39.846081298828125,-0.0006108472589403391,0.0006108472589403391,-0.000687203137204051
1729114749623414300,39.879414306640626,0.0011453386396169662,0.0021379655227065086,-0.00015271181473508477
